triangle_pos,triangle_color,pink_circle_pos,blue_circle_pos,red_circle_pos,test_trial_before_experiment.thisRepN,test_trial_before_experiment.thisTrialN,test_trial_before_experiment.thisN,test_trial_before_experiment.thisIndex,trials.thisRepN,trials.thisTrialN,trials.thisN,trials.thisIndex,thisRow.t,notes,Welcome_Page.started,textWelcomePage.started,key_resp.started,Welcome_Page.stopped,key_resp.keys,key_resp.rt,key_resp.duration,Test_Trial_routine_instructions.started,text.started,key_resp_3.started,Test_Trial_routine_instructions.stopped,key_resp_3.keys,key_resp_3.rt,key_resp_3.duration,test_trial.started,test_trial.stopped,Actual_Trial_Instructions.started,actual_trial_intructions.started,key_resp_4.started,Actual_Trial_Instructions.stopped,key_resp_4.keys,key_resp_4.rt,key_resp_4.duration,Real_Trials.started,Real_Trials.stopped,End_Routine.started,End_Text.started,key_resp_2.started,End_Routine.stopped,key_resp_2.keys,key_resp_2.rt,key_resp_2.duration,participant,session,date,expName,psychopyVersion,frameRate,expStart,
,,,,,,,,,,,,,,,0.06528187499498017,0.07950933399843052,1.9995092089957325,5.152079499996034,space,3.1442053750070045,None,,,,,,,,,,,,,,,,,,,,,,,,,,046602,001,2024-05-11_23h49.09.598,creatingimagesNEW,2024.1.4,None,2024-05-11 23h49.16.785318 -0400,
,,,,,,,,,,,,,,,,,,,,,,5.152254583998001,5.179226166990702,6.148081042003469,9.611172000004444,space,3.4570180419977987,None,,,,,,,,,,,,,,,,,,,046602,001,2024-05-11_23h49.09.598,creatingimagesNEW,2024.1.4,None,2024-05-11 23h49.16.785318 -0400,
"(-0.1875, -0.1875)",r,0.0,0.0,,0,0,0,4,,,,,9.726541416996042,,,,,,,,,,,,,,,,9.705673959004343,11.195175999993808,,,,,,,,,,,,,,,,,046602,001,2024-05-11_23h49.09.598,creatingimagesNEW,2024.1.4,None,2024-05-11 23h49.16.785318 -0400,
"(0.25, 0)",b,0.0,0.0,,0,1,1,15,,,,,11.204127624994726,,,,,,,,,,,,,,,,11.19535641699622,12.166608583997004,,,,,,,,,,,,,,,,,046602,001,2024-05-11_23h49.09.598,creatingimagesNEW,2024.1.4,None,2024-05-11 23h49.16.785318 -0400,
"(-0.25, 0)",r,0.0,0.0,,0,2,2,5,,,,,12.17321137500403,,,,,,,,,,,,,,,,12.166761959000723,13.135541750001721,,,,,,,,,,,,,,,,,046602,001,2024-05-11_23h49.09.598,creatingimagesNEW,2024.1.4,None,2024-05-11 23h49.16.785318 -0400,
"(0.1875, 0.1875)",b,0.0,"(-0.1875, -0.1875)",,0,3,3,19,,,,,13.143189374997746,,,,,,,,,,,,,,,,13.135838458998478,14.00503783399472,,,,,,,,,,,,,,,,,046602,001,2024-05-11_23h49.09.598,creatingimagesNEW,2024.1.4,None,2024-05-11 23h49.16.785318 -0400,
"(0.25, 0)",r,0.0,0.0,,0,4,4,11,,,,,14.011627416999545,,,,,,,,,,,,,,,,14.00521483400371,14.87402570899576,,,,,,,,,,,,,,,,,046602,001,2024-05-11_23h49.09.598,creatingimagesNEW,2024.1.4,None,2024-05-11 23h49.16.785318 -0400,
"(-0.1875, -0.1875)",g,0.0,"(-0.1875, 0.1875) ",,0,5,5,13,,,,,14.881473250003182,,,,,,,,,,,,,,,,14.874453166994499,16.512536209003883,,,,,,,,,,,,,,,,,046602,001,2024-05-11_23h49.09.598,creatingimagesNEW,2024.1.4,None,2024-05-11 23h49.16.785318 -0400,
"(-0.1875, 0.1875)",b,0.0,0.0,,0,6,6,16,,,,,16.52048074999766,,,,,,,,,,,,,,,,16.51277154199488,17.582010083991918,,,,,,,,,,,,,,,,,046602,001,2024-05-11_23h49.09.598,creatingimagesNEW,2024.1.4,None,2024-05-11 23h49.16.785318 -0400,
"(0.1875, 0.1875)",g,0.0,0.0,,0,7,7,1,,,,,17.588582833996043,,,,,,,,,,,,,,,,17.582175374991493,18.550470125002903,,,,,,,,,,,,,,,,,046602,001,2024-05-11_23h49.09.598,creatingimagesNEW,2024.1.4,None,2024-05-11 23h49.16.785318 -0400,
"(-0.1875, 0.1875)",g,"(-0.25, 0)",0.0,,0,8,8,7,,,,,18.557910584000638,,,,,,,,,,,,,,,,18.550746291992255,19.521011999997427,,,,,,,,,,,,,,,,,046602,001,2024-05-11_23h49.09.598,creatingimagesNEW,2024.1.4,None,2024-05-11 23h49.16.785318 -0400,
"(0.25, 0)",b,0.0,"(0.1875, -0.1875)",,0,9,9,20,,,,,19.528364625002723,,,,,,,,,,,,,,,,19.521276749990648,20.38965808399371,,,,,,,,,,,,,,,,,046602,001,2024-05-11_23h49.09.598,creatingimagesNEW,2024.1.4,None,2024-05-11 23h49.16.785318 -0400,
"(0, 0.25)",r,0.0,0.0,,0,10,10,9,,,,,20.396144375001313,,,,,,,,,,,,,,,,20.389815458998783,21.257905833990662,,,,,,,,,,,,,,,,,046602,001,2024-05-11_23h49.09.598,creatingimagesNEW,2024.1.4,None,2024-05-11 23h49.16.785318 -0400,
"(0.1875, -0.1875)",g,0.0,"(0.25, 0)",,0,11,11,12,,,,,21.264442375002545,,,,,,,,,,,,,,,,21.258057083992753,22.126223999992362,,,,,,,,,,,,,,,,,046602,001,2024-05-11_23h49.09.598,creatingimagesNEW,2024.1.4,None,2024-05-11 23h49.16.785318 -0400,
"(-0.25, 0)",g,0.0,"(0.1875, 0.1875)",,0,12,12,14,,,,,22.133032124998863,,,,,,,,,,,,,,,,22.126401999994414,23.195238000000245,,,,,,,,,,,,,,,,,046602,001,2024-05-11_23h49.09.598,creatingimagesNEW,2024.1.4,None,2024-05-11 23h49.16.785318 -0400,
"(0.1875, 0.1875)",r,0.0,0.0,,0,13,13,10,,,,,23.203649834002135,,,,,,,,,,,,,,,,23.195505166993826,24.174149208993185,,,,,,,,,,,,,,,,,046602,001,2024-05-11_23h49.09.598,creatingimagesNEW,2024.1.4,None,2024-05-11 23h49.16.785318 -0400,
"(0.25, 0)",g,"(-0.1875, -0.1875)",0.0,,0,14,14,6,,,,,24.182223208990763,,,,,,,,,,,,,,,,24.174546583992196,25.144438542003627,,,,,,,,,,,,,,,,,046602,001,2024-05-11_23h49.09.598,creatingimagesNEW,2024.1.4,None,2024-05-11 23h49.16.785318 -0400,
"(0.1875, -0.1875)",r,0.0,0.0,,0,15,15,3,,,,,25.150911417003954,,,,,,,,,,,,,,,,25.144599167004344,26.31380208399787,,,,,,,,,,,,,,,,,046602,001,2024-05-11_23h49.09.598,creatingimagesNEW,2024.1.4,None,2024-05-11 23h49.16.785318 -0400,
"(0.25, 0)",g,0.0,0.0,,0,16,16,2,,,,,26.32039787499525,,,,,,,,,,,,,,,,26.314021416998003,27.38295129199105,,,,,,,,,,,,,,,,,046602,001,2024-05-11_23h49.09.598,creatingimagesNEW,2024.1.4,None,2024-05-11 23h49.16.785318 -0400,
"(-0.25, 0)",b,0.0,0.0,,0,17,17,17,,,,,27.390538166990154,,,,,,,,,,,,,,,,27.383213249995606,28.356228459000704,,,,,,,,,,,,,,,,,046602,001,2024-05-11_23h49.09.598,creatingimagesNEW,2024.1.4,None,2024-05-11 23h49.16.785318 -0400,
"(0, 0.25)",g,0.0,0.0,,0,18,18,0,,,,,28.363133791994187,,,,,,,,,,,,,,,,28.356507000004058,29.22514858399518,,,,,,,,,,,,,,,,,046602,001,2024-05-11_23h49.09.598,creatingimagesNEW,2024.1.4,None,2024-05-11 23h49.16.785318 -0400,
"(0, 0.25)",b,0.0,"(0, -0.25)",,0,19,19,18,,,,,29.23170454199135,,,,,,,,,,,,,,,,29.225316541997017,30.093425041995943,,,,,,,,,,,,,,,,,046602,001,2024-05-11_23h49.09.598,creatingimagesNEW,2024.1.4,None,2024-05-11 23h49.16.785318 -0400,
"(-0.25, 0)",g,"(0.25, 0)",0.0,,0,20,20,8,,,,,30.099712833995,,,,,,,,,,,,,,,,30.093574792001164,31.061716249998426,,,,,,,,,,,,,,,,,046602,001,2024-05-11_23h49.09.598,creatingimagesNEW,2024.1.4,None,2024-05-11 23h49.16.785318 -0400,
"(-0.1875, 0.1875)",g,"(-0.25, 0)",0.0,,1,0,21,7,,,,,31.06806633400265,,,,,,,,,,,,,,,,31.061877000000095,32.0299378339987,,,,,,,,,,,,,,,,,046602,001,2024-05-11_23h49.09.598,creatingimagesNEW,2024.1.4,None,2024-05-11 23h49.16.785318 -0400,
"(0.1875, -0.1875)",g,0.0,"(0.25, 0)",,1,1,22,12,,,,,32.03642099999706,,,,,,,,,,,,,,,,32.03008804199635,33.099100958992494,,,,,,,,,,,,,,,,,046602,001,2024-05-11_23h49.09.598,creatingimagesNEW,2024.1.4,None,2024-05-11 23h49.16.785318 -0400,
"(-0.25, 0)",g,0.0,"(0.1875, 0.1875)",,1,2,23,14,,,,,33.10696887499944,,,,,,,,,,,,,,,,33.09940849999839,34.06997720900108,,,,,,,,,,,,,,,,,046602,001,2024-05-11_23h49.09.598,creatingimagesNEW,2024.1.4,None,2024-05-11 23h49.16.785318 -0400,
"(0, 0.25)",b,0.0,"(0, -0.25)",,1,3,24,18,,,,,34.07671599999594,,,,,,,,,,,,,,,,34.070240583998384,35.03882808399794,,,,,,,,,,,,,,,,,046602,001,2024-05-11_23h49.09.598,creatingimagesNEW,2024.1.4,None,2024-05-11 23h49.16.785318 -0400,
"(0.25, 0)",g,"(-0.1875, -0.1875)",0.0,,1,4,25,6,,,,,35.045098041999154,,,,,,,,,,,,,,,,35.03898699999263,35.907823250003275,,,,,,,,,,,,,,,,,046602,001,2024-05-11_23h49.09.598,creatingimagesNEW,2024.1.4,None,2024-05-11 23h49.16.785318 -0400,
"(0.25, 0)",r,0.0,0.0,,1,5,26,11,,,,,35.91452745899733,,,,,,,,,,,,,,,,35.9079806249938,36.97648020899214,,,,,,,,,,,,,,,,,046602,001,2024-05-11_23h49.09.598,creatingimagesNEW,2024.1.4,None,2024-05-11 23h49.16.785318 -0400,
"(-0.1875, 0.1875)",b,0.0,0.0,,1,6,27,16,,,,,36.98332733400457,,,,,,,,,,,,,,,,36.976642041991,38.24562033399707,,,,,,,,,,,,,,,,,046602,001,2024-05-11_23h49.09.598,creatingimagesNEW,2024.1.4,None,2024-05-11 23h49.16.785318 -0400,
"(0.1875, 0.1875)",b,0.0,"(-0.1875, -0.1875)",,1,7,28,19,,,,,38.252464374993,,,,,,,,,,,,,,,,38.245783209000365,39.51951558399014,,,,,,,,,,,,,,,,,046602,001,2024-05-11_23h49.09.598,creatingimagesNEW,2024.1.4,None,2024-05-11 23h49.16.785318 -0400,
"(0.1875, -0.1875)",r,0.0,0.0,,1,8,29,3,,,,,39.52872745899367,,,,,,,,,,,,,,,,39.52004920899344,40.49084258399671,,,,,,,,,,,,,,,,,046602,001,2024-05-11_23h49.09.598,creatingimagesNEW,2024.1.4,None,2024-05-11 23h49.16.785318 -0400,
"(0.25, 0)",b,0.0,"(0.1875, -0.1875)",,1,9,30,20,,,,,40.497584750002716,,,,,,,,,,,,,,,,40.49100854199787,41.45959066700016,,,,,,,,,,,,,,,,,046602,001,2024-05-11_23h49.09.598,creatingimagesNEW,2024.1.4,None,2024-05-11 23h49.16.785318 -0400,
"(0, 0.25)",g,0.0,0.0,,1,10,31,0,,,,,41.46607395900355,,,,,,,,,,,,,,,,41.459757000004174,42.32786204200238,,,,,,,,,,,,,,,,,046602,001,2024-05-11_23h49.09.598,creatingimagesNEW,2024.1.4,None,2024-05-11 23h49.16.785318 -0400,
"(-0.1875, -0.1875)",g,0.0,"(-0.1875, 0.1875) ",,1,11,32,13,,,,,42.33425987500232,,,,,,,,,,,,,,,,42.32802362499933,43.49610908399336,,,,,,,,,,,,,,,,,046602,001,2024-05-11_23h49.09.598,creatingimagesNEW,2024.1.4,None,2024-05-11 23h49.16.785318 -0400,
"(0, 0.25)",r,0.0,0.0,,1,12,33,9,,,,,43.50281766700209,,,,,,,,,,,,,,,,43.496271541996975,44.67912624999008,,,,,,,,,,,,,,,,,046602,001,2024-05-11_23h49.09.598,creatingimagesNEW,2024.1.4,None,2024-05-11 23h49.16.785318 -0400,
"(-0.1875, -0.1875)",r,0.0,0.0,,1,13,34,4,,,,,44.688810708990786,,,,,,,,,,,,,,,,44.67977712499851,45.75212499999907,,,,,,,,,,,,,,,,,046602,001,2024-05-11_23h49.09.598,creatingimagesNEW,2024.1.4,None,2024-05-11 23h49.16.785318 -0400,
"(-0.25, 0)",r,0.0,0.0,,1,14,35,5,,,,,45.759057083996595,,,,,,,,,,,,,,,,45.75229170899547,46.72298629199213,,,,,,,,,,,,,,,,,046602,001,2024-05-11_23h49.09.598,creatingimagesNEW,2024.1.4,None,2024-05-11 23h49.16.785318 -0400,
"(0.1875, 0.1875)",r,0.0,0.0,,1,15,36,10,,,,,46.72987916700367,,,,,,,,,,,,,,,,46.723162416994455,47.6923472089984,,,,,,,,,,,,,,,,,046602,001,2024-05-11_23h49.09.598,creatingimagesNEW,2024.1.4,None,2024-05-11 23h49.16.785318 -0400,
"(-0.25, 0)",b,0.0,0.0,,1,16,37,17,,,,,47.70052416699764,,,,,,,,,,,,,,,,47.69280516699655,48.662220708996756,,,,,,,,,,,,,,,,,046602,001,2024-05-11_23h49.09.598,creatingimagesNEW,2024.1.4,None,2024-05-11 23h49.16.785318 -0400,
"(-0.25, 0)",g,"(0.25, 0)",0.0,,1,17,38,8,,,,,48.668537624995224,,,,,,,,,,,,,,,,48.662384291994385,49.832595166997635,,,,,,,,,,,,,,,,,046602,001,2024-05-11_23h49.09.598,creatingimagesNEW,2024.1.4,None,2024-05-11 23h49.16.785318 -0400,
"(0.25, 0)",b,0.0,0.0,,1,18,39,15,,,,,49.839095499992254,,,,,,,,,,,,,,,,49.83274654200068,50.80082316699554,,,,,,,,,,,,,,,,,046602,001,2024-05-11_23h49.09.598,creatingimagesNEW,2024.1.4,None,2024-05-11 23h49.16.785318 -0400,
"(0.25, 0)",g,0.0,0.0,,1,19,40,2,,,,,50.80719204200432,,,,,,,,,,,,,,,,50.80098212500161,51.76825266699598,,,,,,,,,,,,,,,,,046602,001,2024-05-11_23h49.09.598,creatingimagesNEW,2024.1.4,None,2024-05-11 23h49.16.785318 -0400,
"(0.1875, 0.1875)",g,0.0,0.0,,1,20,41,1,,,,,51.774817375000566,,,,,,,,,,,,,,,,51.76841604200308,52.73664737500076,,,,,,,,,,,,,,,,,046602,001,2024-05-11_23h49.09.598,creatingimagesNEW,2024.1.4,None,2024-05-11 23h49.16.785318 -0400,
"(0.1875, -0.1875)",g,0.0,"(0.25, 0)",,2,0,42,12,,,,,52.7435701249924,,,,,,,,,,,,,,,,52.73682404200372,53.70603237499017,,,,,,,,,,,,,,,,,046602,001,2024-05-11_23h49.09.598,creatingimagesNEW,2024.1.4,None,2024-05-11 23h49.16.785318 -0400,
"(0.1875, -0.1875)",r,0.0,0.0,,2,1,43,3,,,,,53.71344387499266,,,,,,,,,,,,,,,,53.706363749995944,55.075867749998,,,,,,,,,,,,,,,,,046602,001,2024-05-11_23h49.09.598,creatingimagesNEW,2024.1.4,None,2024-05-11 23h49.16.785318 -0400,
"(0.25, 0)",r,0.0,0.0,,2,2,44,11,,,,,55.08504816699133,,,,,,,,,,,,,,,,55.07603191699309,56.24803054200311,,,,,,,,,,,,,,,,,046602,001,2024-05-11_23h49.09.598,creatingimagesNEW,2024.1.4,None,2024-05-11 23h49.16.785318 -0400,
"(-0.1875, 0.1875)",b,0.0,0.0,,2,3,45,16,,,,,56.254516792003415,,,,,,,,,,,,,,,,56.248190250000334,57.216291000004276,,,,,,,,,,,,,,,,,046602,001,2024-05-11_23h49.09.598,creatingimagesNEW,2024.1.4,None,2024-05-11 23h49.16.785318 -0400,
"(0.1875, 0.1875)",g,0.0,0.0,,2,4,46,1,,,,,57.22320312500233,,,,,,,,,,,,,,,,57.216467666992685,58.18491708399961,,,,,,,,,,,,,,,,,046602,001,2024-05-11_23h49.09.598,creatingimagesNEW,2024.1.4,None,2024-05-11 23h49.16.785318 -0400,
"(-0.25, 0)",g,0.0,"(0.1875, 0.1875)",,2,5,47,14,,,,,58.191708833997836,,,,,,,,,,,,,,,,58.18508862500312,59.05423300000257,,,,,,,,,,,,,,,,,046602,001,2024-05-11_23h49.09.598,creatingimagesNEW,2024.1.4,None,2024-05-11 23h49.16.785318 -0400,
"(0.25, 0)",g,"(-0.1875, -0.1875)",0.0,,2,6,48,6,,,,,59.062736708991,,,,,,,,,,,,,,,,59.05444495899428,60.026797583996085,,,,,,,,,,,,,,,,,046602,001,2024-05-11_23h49.09.598,creatingimagesNEW,2024.1.4,None,2024-05-11 23h49.16.785318 -0400,
"(-0.1875, -0.1875)",r,0.0,0.0,,2,7,49,4,,,,,60.033306041994365,,,,,,,,,,,,,,,,60.02696395899693,60.99494216700259,,,,,,,,,,,,,,,,,046602,001,2024-05-11_23h49.09.598,creatingimagesNEW,2024.1.4,None,2024-05-11 23h49.16.785318 -0400,
"(0, 0.25)",r,0.0,0.0,,2,8,50,9,,,,,61.0014374589955,,,,,,,,,,,,,,,,60.99510649999138,61.962962292003795,,,,,,,,,,,,,,,,,046602,001,2024-05-11_23h49.09.598,creatingimagesNEW,2024.1.4,None,2024-05-11 23h49.16.785318 -0400,
"(-0.1875, -0.1875)",g,0.0,"(-0.1875, 0.1875) ",,2,9,51,13,,,,,61.97056920899195,,,,,,,,,,,,,,,,61.963322833995335,63.032876333993045,,,,,,,,,,,,,,,,,046602,001,2024-05-11_23h49.09.598,creatingimagesNEW,2024.1.4,None,2024-05-11 23h49.16.785318 -0400,
"(-0.25, 0)",b,0.0,0.0,,2,10,52,17,,,,,63.039125291994424,,,,,,,,,,,,,,,,63.03303204200347,64.10231720899174,,,,,,,,,,,,,,,,,046602,001,2024-05-11_23h49.09.598,creatingimagesNEW,2024.1.4,None,2024-05-11 23h49.16.785318 -0400,
"(0.25, 0)",b,0.0,0.0,,2,11,53,15,,,,,64.10993662499823,,,,,,,,,,,,,,,,64.1025112089992,65.07384483399801,,,,,,,,,,,,,,,,,046602,001,2024-05-11_23h49.09.598,creatingimagesNEW,2024.1.4,None,2024-05-11 23h49.16.785318 -0400,
"(0, 0.25)",b,0.0,"(0, -0.25)",,2,12,54,18,,,,,65.08138491699356,,,,,,,,,,,,,,,,65.07418662500277,65.9451787089929,,,,,,,,,,,,,,,,,046602,001,2024-05-11_23h49.09.598,creatingimagesNEW,2024.1.4,None,2024-05-11 23h49.16.785318 -0400,
"(0.1875, 0.1875)",r,0.0,0.0,,2,13,55,10,,,,,65.9515740420029,,,,,,,,,,,,,,,,65.94533462499385,67.01427070899808,,,,,,,,,,,,,,,,,046602,001,2024-05-11_23h49.09.598,creatingimagesNEW,2024.1.4,None,2024-05-11 23h49.16.785318 -0400,
"(0.25, 0)",b,0.0,"(0.1875, -0.1875)",,2,14,56,20,,,,,67.0212093339942,,,,,,,,,,,,,,,,67.0144499589951,68.08396241700393,,,,,,,,,,,,,,,,,046602,001,2024-05-11_23h49.09.598,creatingimagesNEW,2024.1.4,None,2024-05-11 23h49.16.785318 -0400,
"(0.1875, 0.1875)",b,0.0,"(-0.1875, -0.1875)",,2,15,57,19,,,,,68.09406554199813,,,,,,,,,,,,,,,,68.08435587499116,69.15690679199179,,,,,,,,,,,,,,,,,046602,001,2024-05-11_23h49.09.598,creatingimagesNEW,2024.1.4,None,2024-05-11 23h49.16.785318 -0400,
"(0, 0.25)",g,0.0,0.0,,2,16,58,0,,,,,69.16351858399867,,,,,,,,,,,,,,,,69.15707504199236,70.12572995899245,,,,,,,,,,,,,,,,,046602,001,2024-05-11_23h49.09.598,creatingimagesNEW,2024.1.4,None,2024-05-11 23h49.16.785318 -0400,
"(0.25, 0)",g,0.0,0.0,,2,17,59,2,,,,,70.13210258400068,,,,,,,,,,,,,,,,70.12589041699539,71.19403324999439,,,,,,,,,,,,,,,,,046602,001,2024-05-11_23h49.09.598,creatingimagesNEW,2024.1.4,None,2024-05-11 23h49.16.785318 -0400,
"(-0.1875, 0.1875)",g,"(-0.25, 0)",0.0,,2,18,60,7,,,,,71.20082229199761,,,,,,,,,,,,,,,,71.1941911670001,72.26280312499148,,,,,,,,,,,,,,,,,046602,001,2024-05-11_23h49.09.598,creatingimagesNEW,2024.1.4,None,2024-05-11 23h49.16.785318 -0400,
"(-0.25, 0)",g,"(0.25, 0)",0.0,,2,19,61,8,,,,,72.26928820899047,,,,,,,,,,,,,,,,72.26296687500144,73.4320281669934,,,,,,,,,,,,,,,,,046602,001,2024-05-11_23h49.09.598,creatingimagesNEW,2024.1.4,None,2024-05-11 23h49.16.785318 -0400,
"(-0.25, 0)",r,0.0,0.0,,2,20,62,5,,,,,73.44092537499091,,,,,,,,,,,,,,,,73.43246050000016,74.30413270900317,,,,,,,,,,,,,,,,,046602,001,2024-05-11_23h49.09.598,creatingimagesNEW,2024.1.4,None,2024-05-11 23h49.16.785318 -0400,
,,,,,,,,,,,,,,,,,,,,,,,,,,,,,,,74.30425583399483,74.31342900000163,75.30137962500157,85.70162433400401,space,10.381361250008922,None,,,,,,,,,,046602,001,2024-05-11_23h49.09.598,creatingimagesNEW,2024.1.4,None,2024-05-11 23h49.16.785318 -0400,
"(0.1875, 0.1875)",g,,0.0,0.0,,,,,0,0,0,1,85.76013491699996,,,,,,,,,,,,,,,,,,,,,,,,,85.74899583400111,86.82443929200235,,,,,,,,046602,001,2024-05-11_23h49.09.598,creatingimagesNEW,2024.1.4,None,2024-05-11 23h49.16.785318 -0400,
"(0.1875, 0.1875)",g,,0.0,"(0, -0.25)",,,,,0,1,1,9,86.83213129200158,,,,,,,,,,,,,,,,,,,,,,,,,86.8246369589906,88.8088625419914,,,,,,,,046602,001,2024-05-11_23h49.09.598,creatingimagesNEW,2024.1.4,None,2024-05-11 23h49.16.785318 -0400,
"(0, 0.25)",g,,"(-0.1875, -0.1875)",0.0,,,,,0,2,2,32,88.83074483399105,,,,,,,,,,,,,,,,,,,,,,,,,88.80945045899716,89.99518362499657,,,,,,,,046602,001,2024-05-11_23h49.09.598,creatingimagesNEW,2024.1.4,None,2024-05-11 23h49.16.785318 -0400,
"(0, -0.25)",g,,"(0.1875, 0.1875)",0.0,,,,,0,3,3,36,90.00240933400346,,,,,,,,,,,,,,,,,,,,,,,,,89.99534958400181,91.66556237499753,,,,,,,,046602,001,2024-05-11_23h49.09.598,creatingimagesNEW,2024.1.4,None,2024-05-11 23h49.16.785318 -0400,
"(-0.1875, -0.1875)",b,,0.0,0.0,,,,,0,4,4,45,91.675819666998,,,,,,,,,,,,,,,,,,,,,,,,,91.66575074999128,92.93853891699109,,,,,,,,046602,001,2024-05-11_23h49.09.598,creatingimagesNEW,2024.1.4,None,2024-05-11 23h49.16.785318 -0400,
"(0, 0.25)",r,,0.0,0.0,,,,,0,5,5,16,92.94554666700424,,,,,,,,,,,,,,,,,,,,,,,,,92.93871020899678,94.11534345899418,,,,,,,,046602,001,2024-05-11_23h49.09.598,creatingimagesNEW,2024.1.4,None,2024-05-11 23h49.16.785318 -0400,
"(-0.25, 0)",b,,"(0.1875, -0.1875)",0.0,,,,,0,6,6,54,94.12696004199097,,,,,,,,,,,,,,,,,,,,,,,,,94.1162512919982,95.5912350419967,,,,,,,,046602,001,2024-05-11_23h49.09.598,creatingimagesNEW,2024.1.4,None,2024-05-11 23h49.16.785318 -0400,
"(-0.1875, 0.1875)",b,,"(0.25, 0)",0.0,,,,,0,7,7,55,95.60064420900017,,,,,,,,,,,,,,,,,,,,,,,,,95.59140283399029,97.36477941699559,,,,,,,,046602,001,2024-05-11_23h49.09.598,creatingimagesNEW,2024.1.4,None,2024-05-11 23h49.16.785318 -0400,
"(0.25, 0)",b,,0.0,0.0,,,,,0,8,8,42,97.37423316699278,,,,,,,,,,,,,,,,,,,,,,,,,97.36495524999918,98.53731258399785,,,,,,,,046602,001,2024-05-11_23h49.09.598,creatingimagesNEW,2024.1.4,None,2024-05-11 23h49.16.785318 -0400,
"(0.1875, -0.1875)",b,,0.0,0.0,,,,,0,9,9,43,98.54432345899113,,,,,,,,,,,,,,,,,,,,,,,,,98.53747529200336,99.80748983399826,,,,,,,,046602,001,2024-05-11_23h49.09.598,creatingimagesNEW,2024.1.4,None,2024-05-11 23h49.16.785318 -0400,
"(-0.1875, 0.1875)",r,,0.0,0.0,,,,,0,10,10,23,99.81793874999858,,,,,,,,,,,,,,,,,,,,,,,,,99.80788254199433,100.68263324999134,,,,,,,,046602,001,2024-05-11_23h49.09.598,creatingimagesNEW,2024.1.4,None,2024-05-11 23h49.16.785318 -0400,
"(0, -0.25)",b,,0.0,0.0,,,,,0,11,11,44,100.69484124999144,,,,,,,,,,,,,,,,,,,,,,,,,100.68281112499244,101.85728566699254,,,,,,,,046602,001,2024-05-11_23h49.09.598,creatingimagesNEW,2024.1.4,None,2024-05-11 23h49.16.785318 -0400,
"(0, 0.25)",g,,0.0,0.0,,,,,0,12,12,0,101.86426200000278,,,,,,,,,,,,,,,,,,,,,,,,,101.85744545899797,102.82554620900191,,,,,,,,046602,001,2024-05-11_23h49.09.598,creatingimagesNEW,2024.1.4,None,2024-05-11 23h49.16.785318 -0400,
"(0.1875, -0.1875)",g,,0.0,"(-0.25, 0)",,,,,0,13,13,11,102.83230437499878,,,,,,,,,,,,,,,,,,,,,,,,,102.82570704199316,104.09496016699995,,,,,,,,046602,001,2024-05-11_23h49.09.598,creatingimagesNEW,2024.1.4,None,2024-05-11 23h49.16.785318 -0400,
"(0.1875, 0.1875)",g,,"(0, -0.25)",0.0,,,,,0,14,14,33,104.1064958749921,,,,,,,,,,,,,,,,,,,,,,,,,104.09538887499366,105.37191712499771,,,,,,,,046602,001,2024-05-11_23h49.09.598,creatingimagesNEW,2024.1.4,None,2024-05-11 23h49.16.785318 -0400,
"(0.25, 0)",g,,0.0,0.0,,,,,0,15,15,2,105.39094608399319,,,,,,,,,,,,,,,,,,,,,,,,,105.37287808400288,106.65632100000221,,,,,,,,046602,001,2024-05-11_23h49.09.598,creatingimagesNEW,2024.1.4,None,2024-05-11 23h49.16.785318 -0400,
"(0, -0.25)",r,,0.0,0.0,,,,,0,16,16,20,106.66365025000414,,,,,,,,,,,,,,,,,,,,,,,,,106.65651333400456,107.72667766700033,,,,,,,,046602,001,2024-05-11_23h49.09.598,creatingimagesNEW,2024.1.4,None,2024-05-11 23h49.16.785318 -0400,
"(0.25, 0)",g,,"(-0.1875, 0.1875)",0.0,,,,,0,17,17,34,107.73510458400415,,,,,,,,,,,,,,,,,,,,,,,,,107.72688699999708,109.29911641699437,,,,,,,,046602,001,2024-05-11_23h49.09.598,creatingimagesNEW,2024.1.4,None,2024-05-11 23h49.16.785318 -0400,
"(0.1875, -0.1875)",r,,0.0,"(-0.25, 0)",,,,,0,18,18,27,109.30754287500167,,,,,,,,,,,,,,,,,,,,,,,,,109.29959270899417,110.47021266700176,,,,,,,,046602,001,2024-05-11_23h49.09.598,creatingimagesNEW,2024.1.4,None,2024-05-11 23h49.16.785318 -0400,
"(0.25, 0)",r,,0.0,"(-0.1875, 0.1875)",,,,,0,19,19,26,110.47692833399924,,,,,,,,,,,,,,,,,,,,,,,,,110.47037858399563,111.84035616699839,,,,,,,,046602,001,2024-05-11_23h49.09.598,creatingimagesNEW,2024.1.4,None,2024-05-11 23h49.16.785318 -0400,
"(-0.25, 0)",g,,0.0,0.0,,,,,0,20,20,6,111.84851016699395,,,,,,,,,,,,,,,,,,,,,,,,,111.84052695900027,113.2119774169987,,,,,,,,046602,001,2024-05-11_23h49.09.598,creatingimagesNEW,2024.1.4,None,2024-05-11 23h49.16.785318 -0400,
"(-0.25, 0)",g,,"(0.1875, -0.1875)",0.0,,,,,0,21,21,38,113.21955591699225,,,,,,,,,,,,,,,,,,,,,,,,,113.21214995899936,114.78583337500459,,,,,,,,046602,001,2024-05-11_23h49.09.598,creatingimagesNEW,2024.1.4,None,2024-05-11 23h49.16.785318 -0400,
"(-0.1875, -0.1875)",g,,0.0,0.0,,,,,0,22,22,5,114.79491504200269,,,,,,,,,,,,,,,,,,,,,,,,,114.7862752499932,115.85784770899045,,,,,,,,046602,001,2024-05-11_23h49.09.598,creatingimagesNEW,2024.1.4,None,2024-05-11 23h49.16.785318 -0400,
"(-0.25, 0)",r,,0.0,0.0,,,,,0,23,23,22,115.86467370900209,,,,,,,,,,,,,,,,,,,,,,,,,115.85803887499787,116.8287752920005,,,,,,,,046602,001,2024-05-11_23h49.09.598,creatingimagesNEW,2024.1.4,None,2024-05-11 23h49.16.785318 -0400,
"(0.1875, 0.1875)",b,,0.0,0.0,,,,,0,24,24,41,116.83543958399969,,,,,,,,,,,,,,,,,,,,,,,,,116.82893762500316,118.0976189590001,,,,,,,,046602,001,2024-05-11_23h49.09.598,creatingimagesNEW,2024.1.4,None,2024-05-11 23h49.16.785318 -0400,
"(-0.25, 0)",r,,0.0,"(0.1875, -0.1875)",,,,,0,25,25,30,118.10453966699424,,,,,,,,,,,,,,,,,,,,,,,,,118.09778829199786,119.36770866699226,,,,,,,,046602,001,2024-05-11_23h49.09.598,creatingimagesNEW,2024.1.4,None,2024-05-11 23h49.16.785318 -0400,
"(-0.25, 0)",b,,0.0,0.0,,,,,0,26,26,46,119.374544374994,,,,,,,,,,,,,,,,,,,,,,,,,119.36787558399374,120.64308837499993,,,,,,,,046602,001,2024-05-11_23h49.09.598,creatingimagesNEW,2024.1.4,None,2024-05-11 23h49.16.785318 -0400,
"(0.1875, -0.1875)",r,,0.0,0.0,,,,,0,27,27,19,120.65069433399185,,,,,,,,,,,,,,,,,,,,,,,,,120.64334658399457,122.11778258399863,,,,,,,,046602,001,2024-05-11_23h49.09.598,creatingimagesNEW,2024.1.4,None,2024-05-11 23h49.16.785318 -0400,
"(0, 0.25)",b,,"(-0.1875, -0.1875)",0.0,,,,,0,28,28,48,122.12737766699865,,,,,,,,,,,,,,,,,,,,,,,,,122.11795362499834,123.29182812500221,,,,,,,,046602,001,2024-05-11_23h49.09.598,creatingimagesNEW,2024.1.4,None,2024-05-11 23h49.16.785318 -0400,
"(0, 0.25)",r,,0.0,"(-0.1875, -0.1875)",,,,,0,29,29,24,123.29890937499295,,,,,,,,,,,,,,,,,,,,,,,,,123.29200779199891,124.66079933400033,,,,,,,,046602,001,2024-05-11_23h49.09.598,creatingimagesNEW,2024.1.4,None,2024-05-11 23h49.16.785318 -0400,
"(-0.25, 0)",g,,0.0,"(0.1875, -0.1875)",,,,,0,30,30,14,124.68146754200279,,,,,,,,,,,,,,,,,,,,,,,,,124.66098858400073,126.14873270899989,,,,,,,,046602,001,2024-05-11_23h49.09.598,creatingimagesNEW,2024.1.4,None,2024-05-11 23h49.16.785318 -0400,
"(0.1875, 0.1875)",r,,0.0,"(0, -0.25)",,,,,0,31,31,25,126.1598967089958,,,,,,,,,,,,,,,,,,,,,,,,,126.14929454200319,127.62487766699633,,,,,,,,046602,001,2024-05-11_23h49.09.598,creatingimagesNEW,2024.1.4,None,2024-05-11 23h49.16.785318 -0400,
"(0, -0.25)",g,,0.0,0.0,,,,,0,32,32,4,127.6349930419965,,,,,,,,,,,,,,,,,,,,,,,,,127.62507366700447,128.90635829199164,,,,,,,,046602,001,2024-05-11_23h49.09.598,creatingimagesNEW,2024.1.4,None,2024-05-11 23h49.16.785318 -0400,
"(0, 0.25)",g,,0.0,"(-0.1875, -0.1875)",,,,,0,33,33,8,128.9150184589962,,,,,,,,,,,,,,,,,,,,,,,,,128.9069516669988,130.87841799999296,,,,,,,,046602,001,2024-05-11_23h49.09.598,creatingimagesNEW,2024.1.4,None,2024-05-11 23h49.16.785318 -0400,
"(0, -0.25)",r,,0.0,"(0.1875, 0.1875)",,,,,0,34,34,28,130.88597537500027,,,,,,,,,,,,,,,,,,,,,,,,,130.87860349999391,132.55052837499534,,,,,,,,046602,001,2024-05-11_23h49.09.598,creatingimagesNEW,2024.1.4,None,2024-05-11 23h49.16.785318 -0400,
"(-0.1875, -0.1875)",b,,"(0, 0.25)",0.0,,,,,0,35,35,53,132.55767191699124,,,,,,,,,,,,,,,,,,,,,,,,,132.5506995839969,133.92084320899448,,,,,,,,046602,001,2024-05-11_23h49.09.598,creatingimagesNEW,2024.1.4,None,2024-05-11 23h49.16.785318 -0400,
"(-0.1875, -0.1875)",r,,0.0,0.0,,,,,0,36,36,21,133.9307576249994,,,,,,,,,,,,,,,,,,,,,,,,,133.92113995899854,134.99444962499547,,,,,,,,046602,001,2024-05-11_23h49.09.598,creatingimagesNEW,2024.1.4,None,2024-05-11 23h49.16.785318 -0400,
"(-0.1875, -0.1875)",g,,0.0,"(0, 0.25)",,,,,0,37,37,13,135.001392709004,,,,,,,,,,,,,,,,,,,,,,,,,134.9946314169938,136.66498745899298,,,,,,,,046602,001,2024-05-11_23h49.09.598,creatingimagesNEW,2024.1.4,None,2024-05-11 23h49.16.785318 -0400,
"(0.1875, -0.1875)",g,,0.0,0.0,,,,,0,38,38,3,136.67328145899228,,,,,,,,,,,,,,,,,,,,,,,,,136.66516295899055,137.9369518339954,,,,,,,,046602,001,2024-05-11_23h49.09.598,creatingimagesNEW,2024.1.4,None,2024-05-11 23h49.16.785318 -0400,
"(0.1875, 0.1875)",r,,0.0,0.0,,,,,0,39,39,17,137.94389729200338,,,,,,,,,,,,,,,,,,,,,,,,,137.93712491699262,139.2066129589948,,,,,,,,046602,001,2024-05-11_23h49.09.598,creatingimagesNEW,2024.1.4,None,2024-05-11 23h49.16.785318 -0400,
"(-0.1875, 0.1875)",g,,0.0,"(0.25, 0)",,,,,0,40,40,15,139.21356816700427,,,,,,,,,,,,,,,,,,,,,,,,,139.20678191700426,141.1779672499979,,,,,,,,046602,001,2024-05-11_23h49.09.598,creatingimagesNEW,2024.1.4,None,2024-05-11 23h49.16.785318 -0400,
"(0.25, 0)",b,,"(-0.1875, 0.1875)",0.0,,,,,0,41,41,50,141.18977829199866,,,,,,,,,,,,,,,,,,,,,,,,,141.17866312499973,142.5539227919944,,,,,,,,046602,001,2024-05-11_23h49.09.598,creatingimagesNEW,2024.1.4,None,2024-05-11 23h49.16.785318 -0400,
"(-0.1875, 0.1875)",r,,0.0,"(0.25, 0)",,,,,0,42,42,31,142.5610257919907,,,,,,,,,,,,,,,,,,,,,,,,,142.55409637499542,143.72303229199315,,,,,,,,046602,001,2024-05-11_23h49.09.598,creatingimagesNEW,2024.1.4,None,2024-05-11 23h49.16.785318 -0400,
"(0.1875, -0.1875)",g,,"(-0.25, 0)",0.0,,,,,0,43,43,35,143.73033920899616,,,,,,,,,,,,,,,,,,,,,,,,,143.72320058399055,145.49456562499108,,,,,,,,046602,001,2024-05-11_23h49.09.598,creatingimagesNEW,2024.1.4,None,2024-05-11 23h49.16.785318 -0400,
"(0.1875, 0.1875)",b,,"(0, -0.25)",0.0,,,,,0,44,44,49,145.51755979200243,,,,,,,,,,,,,,,,,,,,,,,,,145.49475666700164,146.59376854199218,,,,,,,,046602,001,2024-05-11_23h49.09.598,creatingimagesNEW,2024.1.4,None,2024-05-11 23h49.16.785318 -0400,
"(-0.1875, 0.1875)",g,,0.0,0.0,,,,,0,45,45,7,146.6011908340006,,,,,,,,,,,,,,,,,,,,,,,,,146.59428175000357,147.76520604199322,,,,,,,,046602,001,2024-05-11_23h49.09.598,creatingimagesNEW,2024.1.4,None,2024-05-11 23h49.16.785318 -0400,
"(-0.1875, -0.1875)",r,,0.0,"(0, 0.25)",,,,,0,46,46,29,147.77276662499935,,,,,,,,,,,,,,,,,,,,,,,,,147.76538512499246,149.14514108399453,,,,,,,,046602,001,2024-05-11_23h49.09.598,creatingimagesNEW,2024.1.4,None,2024-05-11 23h49.16.785318 -0400,
"(0.1875, -0.1875)",b,,"(-0.25, 0)",0.0,,,,,0,47,47,51,149.16793699999107,,,,,,,,,,,,,,,,,,,,,,,,,149.14670233399374,150.532300167004,,,,,,,,046602,001,2024-05-11_23h49.09.598,creatingimagesNEW,2024.1.4,None,2024-05-11 23h49.16.785318 -0400,
"(0, -0.25)",g,,0.0,"(0.1875, 0.1875)",,,,,0,48,48,12,150.5396991250018,,,,,,,,,,,,,,,,,,,,,,,,,150.53247604200442,152.10288049999508,,,,,,,,046602,001,2024-05-11_23h49.09.598,creatingimagesNEW,2024.1.4,None,2024-05-11 23h49.16.785318 -0400,
"(0.25, 0)",r,,0.0,0.0,,,,,0,49,49,18,152.1109882919991,,,,,,,,,,,,,,,,,,,,,,,,,152.1030536670005,153.57432566699572,,,,,,,,046602,001,2024-05-11_23h49.09.598,creatingimagesNEW,2024.1.4,None,2024-05-11 23h49.16.785318 -0400,
"(0, -0.25)",b,,"(0.1875, 0.1875)",0.0,,,,,0,50,50,52,153.58231912499468,,,,,,,,,,,,,,,,,,,,,,,,,153.57451495899295,154.7479809170036,,,,,,,,046602,001,2024-05-11_23h49.09.598,creatingimagesNEW,2024.1.4,None,2024-05-11 23h49.16.785318 -0400,
"(0, 0.25)",b,,0.0,0.0,,,,,0,51,51,40,154.76935400000366,,,,,,,,,,,,,,,,,,,,,,,,,154.7498794169951,155.83237383399683,,,,,,,,046602,001,2024-05-11_23h49.09.598,creatingimagesNEW,2024.1.4,None,2024-05-11 23h49.16.785318 -0400,
"(0.25, 0)",g,,0.0,"(-0.1875, 0.1875)",,,,,0,52,52,10,155.83929308399092,,,,,,,,,,,,,,,,,,,,,,,,,155.83256987499772,157.4028355420014,,,,,,,,046602,001,2024-05-11_23h49.09.598,creatingimagesNEW,2024.1.4,None,2024-05-11 23h49.16.785318 -0400,
"(-0.1875, 0.1875)",g,,"(0.25, 0)",0.0,,,,,0,53,53,39,157.41061941700173,,,,,,,,,,,,,,,,,,,,,,,,,157.4029971669952,158.87452679200214,,,,,,,,046602,001,2024-05-11_23h49.09.598,creatingimagesNEW,2024.1.4,None,2024-05-11 23h49.16.785318 -0400,
"(-0.1875, 0.1875)",b,,0.0,0.0,,,,,0,54,54,47,158.88184383399494,,,,,,,,,,,,,,,,,,,,,,,,,158.8746951249923,160.0439317499986,,,,,,,,046602,001,2024-05-11_23h49.09.598,creatingimagesNEW,2024.1.4,None,2024-05-11 23h49.16.785318 -0400,
"(-0.1875, -0.1875)",g,,"(0, 0.25)",0.0,,,,,0,55,55,37,160.0509590839938,,,,,,,,,,,,,,,,,,,,,,,,,160.04409829199722,161.52152974999626,,,,,,,,046602,001,2024-05-11_23h49.09.598,creatingimagesNEW,2024.1.4,None,2024-05-11 23h49.16.785318 -0400,
"(-0.25, 0)",g,,0.0,0.0,,,,,1,0,56,6,161.53412541699072,,,,,,,,,,,,,,,,,,,,,,,,,161.52228991700395,162.90935004199855,,,,,,,,046602,001,2024-05-11_23h49.09.598,creatingimagesNEW,2024.1.4,None,2024-05-11 23h49.16.785318 -0400,
"(0, 0.25)",g,,"(-0.1875, -0.1875)",0.0,,,,,1,1,57,32,162.9164129169949,,,,,,,,,,,,,,,,,,,,,,,,,162.90952720899077,164.67902362499444,,,,,,,,046602,001,2024-05-11_23h49.09.598,creatingimagesNEW,2024.1.4,None,2024-05-11 23h49.16.785318 -0400,
"(-0.1875, -0.1875)",g,,"(0, 0.25)",0.0,,,,,1,2,58,37,164.6899624170037,,,,,,,,,,,,,,,,,,,,,,,,,164.67919904200244,166.46053362499515,,,,,,,,046602,001,2024-05-11_23h49.09.598,creatingimagesNEW,2024.1.4,None,2024-05-11 23h49.16.785318 -0400,
"(-0.25, 0)",g,,"(0.1875, -0.1875)",0.0,,,,,1,3,59,38,166.47731954199844,,,,,,,,,,,,,,,,,,,,,,,,,166.461362749993,168.14166404199204,,,,,,,,046602,001,2024-05-11_23h49.09.598,creatingimagesNEW,2024.1.4,None,2024-05-11 23h49.16.785318 -0400,
"(-0.25, 0)",b,,0.0,0.0,,,,,1,4,60,46,168.15157795899722,,,,,,,,,,,,,,,,,,,,,,,,,168.14183766700444,169.51579133399355,,,,,,,,046602,001,2024-05-11_23h49.09.598,creatingimagesNEW,2024.1.4,None,2024-05-11 23h49.16.785318 -0400,
"(0.25, 0)",r,,0.0,0.0,,,,,1,5,61,18,169.5237566249998,,,,,,,,,,,,,,,,,,,,,,,,,169.51597449999826,170.48692041699542,,,,,,,,046602,001,2024-05-11_23h49.09.598,creatingimagesNEW,2024.1.4,None,2024-05-11 23h49.16.785318 -0400,
"(0, 0.25)",g,,0.0,"(-0.1875, -0.1875)",,,,,1,6,62,8,170.49742366699502,,,,,,,,,,,,,,,,,,,,,,,,,170.48772904199723,171.9613041249977,,,,,,,,046602,001,2024-05-11_23h49.09.598,creatingimagesNEW,2024.1.4,None,2024-05-11 23h49.16.785318 -0400,
"(-0.1875, 0.1875)",b,,"(0.25, 0)",0.0,,,,,1,7,63,55,171.9703610419965,,,,,,,,,,,,,,,,,,,,,,,,,171.96148162499594,173.333034958996,,,,,,,,046602,001,2024-05-11_23h49.09.598,creatingimagesNEW,2024.1.4,None,2024-05-11 23h49.16.785318 -0400,
"(0.25, 0)",g,,"(-0.1875, 0.1875)",0.0,,,,,1,8,64,34,173.34000620899315,,,,,,,,,,,,,,,,,,,,,,,,,173.33320629199443,175.10402016699663,,,,,,,,046602,001,2024-05-11_23h49.09.598,creatingimagesNEW,2024.1.4,None,2024-05-11 23h49.16.785318 -0400,
"(0.25, 0)",b,,"(-0.1875, 0.1875)",0.0,,,,,1,9,65,50,175.14424174999294,,,,,,,,,,,,,,,,,,,,,,,,,175.10485812499246,176.51021958400088,,,,,,,,046602,001,2024-05-11_23h49.09.598,creatingimagesNEW,2024.1.4,None,2024-05-11 23h49.16.785318 -0400,
"(0.1875, 0.1875)",b,,"(0, -0.25)",0.0,,,,,1,10,66,49,176.51747587499267,,,,,,,,,,,,,,,,,,,,,,,,,176.5103988339979,177.98167070899217,,,,,,,,046602,001,2024-05-11_23h49.09.598,creatingimagesNEW,2024.1.4,None,2024-05-11 23h49.16.785318 -0400,
"(-0.1875, -0.1875)",r,,0.0,0.0,,,,,1,11,67,21,177.99145000000135,,,,,,,,,,,,,,,,,,,,,,,,,177.98184741700243,179.15407712500019,,,,,,,,046602,001,2024-05-11_23h49.09.598,creatingimagesNEW,2024.1.4,None,2024-05-11 23h49.16.785318 -0400,
"(0, -0.25)",b,,0.0,0.0,,,,,1,12,68,44,179.16113162499096,,,,,,,,,,,,,,,,,,,,,,,,,179.15424200000416,180.32455520899384,,,,,,,,046602,001,2024-05-11_23h49.09.598,creatingimagesNEW,2024.1.4,None,2024-05-11 23h49.16.785318 -0400,
"(-0.1875, 0.1875)",g,,"(0.25, 0)",0.0,,,,,1,13,69,39,180.3343542090006,,,,,,,,,,,,,,,,,,,,,,,,,180.3248032089905,181.80065879199537,,,,,,,,046602,001,2024-05-11_23h49.09.598,creatingimagesNEW,2024.1.4,None,2024-05-11 23h49.16.785318 -0400,
"(0.25, 0)",b,,0.0,0.0,,,,,1,14,70,42,181.8129889999982,,,,,,,,,,,,,,,,,,,,,,,,,181.8011223749927,182.97571912499552,,,,,,,,046602,001,2024-05-11_23h49.09.598,creatingimagesNEW,2024.1.4,None,2024-05-11 23h49.16.785318 -0400,
"(-0.1875, 0.1875)",g,,0.0,0.0,,,,,1,15,71,7,182.9826702499995,,,,,,,,,,,,,,,,,,,,,,,,,182.9758896669955,184.4466380840022,,,,,,,,046602,001,2024-05-11_23h49.09.598,creatingimagesNEW,2024.1.4,None,2024-05-11 23h49.16.785318 -0400,
"(-0.1875, -0.1875)",b,,"(0, 0.25)",0.0,,,,,1,16,72,53,184.45630387499114,,,,,,,,,,,,,,,,,,,,,,,,,184.446817249991,185.72084741700382,,,,,,,,046602,001,2024-05-11_23h49.09.598,creatingimagesNEW,2024.1.4,None,2024-05-11 23h49.16.785318 -0400,
"(0, 0.25)",r,,0.0,"(-0.1875, -0.1875)",,,,,1,17,73,24,185.72852454199165,,,,,,,,,,,,,,,,,,,,,,,,,185.72104345899425,187.20411854199483,,,,,,,,046602,001,2024-05-11_23h49.09.598,creatingimagesNEW,2024.1.4,None,2024-05-11 23h49.16.785318 -0400,
"(-0.25, 0)",r,,0.0,0.0,,,,,1,18,74,22,187.21432054199977,,,,,,,,,,,,,,,,,,,,,,,,,187.20477829199808,189.0794972500007,,,,,,,,046602,001,2024-05-11_23h49.09.598,creatingimagesNEW,2024.1.4,None,2024-05-11 23h49.16.785318 -0400,
"(0, -0.25)",b,,"(0.1875, 0.1875)",0.0,,,,,1,19,75,52,189.08674620899546,,,,,,,,,,,,,,,,,,,,,,,,,189.07966845900228,190.2493222089979,,,,,,,,046602,001,2024-05-11_23h49.09.598,creatingimagesNEW,2024.1.4,None,2024-05-11 23h49.16.785318 -0400,
"(0.1875, -0.1875)",g,,"(-0.25, 0)",0.0,,,,,1,20,76,35,190.25694170899806,,,,,,,,,,,,,,,,,,,,,,,,,190.24957591699786,191.92216804200143,,,,,,,,046602,001,2024-05-11_23h49.09.598,creatingimagesNEW,2024.1.4,None,2024-05-11 23h49.16.785318 -0400,
"(-0.1875, 0.1875)",r,,0.0,0.0,,,,,1,21,77,23,191.9341205840028,,,,,,,,,,,,,,,,,,,,,,,,,191.92590508399007,192.9973740419955,,,,,,,,046602,001,2024-05-11_23h49.09.598,creatingimagesNEW,2024.1.4,None,2024-05-11 23h49.16.785318 -0400,
"(0, 0.25)",g,,0.0,0.0,,,,,1,22,78,0,193.00405412499094,,,,,,,,,,,,,,,,,,,,,,,,,192.99753841699567,194.26653033400362,,,,,,,,046602,001,2024-05-11_23h49.09.598,creatingimagesNEW,2024.1.4,None,2024-05-11 23h49.16.785318 -0400,
"(0, -0.25)",g,,0.0,"(0.1875, 0.1875)",,,,,1,23,79,12,194.27545804200054,,,,,,,,,,,,,,,,,,,,,,,,,194.2667178339907,196.0396774999972,,,,,,,,046602,001,2024-05-11_23h49.09.598,creatingimagesNEW,2024.1.4,None,2024-05-11 23h49.16.785318 -0400,
"(-0.1875, 0.1875)",g,,0.0,"(0.25, 0)",,,,,1,24,80,15,196.05144937499426,,,,,,,,,,,,,,,,,,,,,,,,,196.04038937500445,197.81631408400426,,,,,,,,046602,001,2024-05-11_23h49.09.598,creatingimagesNEW,2024.1.4,None,2024-05-11 23h49.16.785318 -0400,
"(0, 0.25)",b,,0.0,0.0,,,,,1,25,81,40,197.82361237499572,,,,,,,,,,,,,,,,,,,,,,,,,197.8164929170016,198.98664175000158,,,,,,,,046602,001,2024-05-11_23h49.09.598,creatingimagesNEW,2024.1.4,None,2024-05-11 23h49.16.785318 -0400,
"(0.1875, -0.1875)",r,,0.0,0.0,,,,,1,26,82,19,198.99358004199166,,,,,,,,,,,,,,,,,,,,,,,,,198.98681587500323,200.35701808400336,,,,,,,,046602,001,2024-05-11_23h49.09.598,creatingimagesNEW,2024.1.4,None,2024-05-11 23h49.16.785318 -0400,
"(-0.1875, 0.1875)",b,,0.0,0.0,,,,,1,27,83,47,200.3652454999974,,,,,,,,,,,,,,,,,,,,,,,,,200.35719904200232,201.53007595900272,,,,,,,,046602,001,2024-05-11_23h49.09.598,creatingimagesNEW,2024.1.4,None,2024-05-11 23h49.16.785318 -0400,
"(0.1875, 0.1875)",g,,0.0,"(0, -0.25)",,,,,1,28,84,9,201.53998579199833,,,,,,,,,,,,,,,,,,,,,,,,,201.53076504199998,203.00347179199161,,,,,,,,046602,001,2024-05-11_23h49.09.598,creatingimagesNEW,2024.1.4,None,2024-05-11 23h49.16.785318 -0400,
"(0.1875, 0.1875)",b,,0.0,0.0,,,,,1,29,85,41,203.01146241699462,,,,,,,,,,,,,,,,,,,,,,,,,203.00364450000052,204.37513149999722,,,,,,,,046602,001,2024-05-11_23h49.09.598,creatingimagesNEW,2024.1.4,None,2024-05-11 23h49.16.785318 -0400,
"(0, -0.25)",g,,0.0,0.0,,,,,1,30,86,4,204.3824078339967,,,,,,,,,,,,,,,,,,,,,,,,,204.37531441700412,205.44504854199477,,,,,,,,046602,001,2024-05-11_23h49.09.598,creatingimagesNEW,2024.1.4,None,2024-05-11 23h49.16.785318 -0400,
"(0.25, 0)",g,,0.0,"(-0.1875, 0.1875)",,,,,1,31,87,10,205.45237649999035,,,,,,,,,,,,,,,,,,,,,,,,,205.44523933400342,207.3202817089914,,,,,,,,046602,001,2024-05-11_23h49.09.598,creatingimagesNEW,2024.1.4,None,2024-05-11 23h49.16.785318 -0400,
"(0.1875, 0.1875)",r,,0.0,0.0,,,,,1,32,88,17,207.3338149170013,,,,,,,,,,,,,,,,,,,,,,,,,207.32124720899446,208.39942354199593,,,,,,,,046602,001,2024-05-11_23h49.09.598,creatingimagesNEW,2024.1.4,None,2024-05-11 23h49.16.785318 -0400,
"(0.1875, -0.1875)",g,,0.0,"(-0.25, 0)",,,,,1,33,89,11,208.40624416699575,,,,,,,,,,,,,,,,,,,,,,,,,208.39959429200098,209.97033708399977,,,,,,,,046602,001,2024-05-11_23h49.09.598,creatingimagesNEW,2024.1.4,None,2024-05-11 23h49.16.785318 -0400,
"(0.1875, 0.1875)",r,,0.0,"(0, -0.25)",,,,,1,34,90,25,209.97987554199062,,,,,,,,,,,,,,,,,,,,,,,,,209.97051958399243,211.74854808399687,,,,,,,,046602,001,2024-05-11_23h49.09.598,creatingimagesNEW,2024.1.4,None,2024-05-11 23h49.16.785318 -0400,
"(0.1875, -0.1875)",b,,"(-0.25, 0)",0.0,,,,,1,35,91,51,211.76302166699315,,,,,,,,,,,,,,,,,,,,,,,,,211.74999679200118,213.42688545900455,,,,,,,,046602,001,2024-05-11_23h49.09.598,creatingimagesNEW,2024.1.4,None,2024-05-11 23h49.16.785318 -0400,
"(0, -0.25)",r,,0.0,0.0,,,,,1,36,92,20,213.4346672919928,,,,,,,,,,,,,,,,,,,,,,,,,213.42707595899992,214.69902666700364,,,,,,,,046602,001,2024-05-11_23h49.09.598,creatingimagesNEW,2024.1.4,None,2024-05-11 23h49.16.785318 -0400,
"(-0.25, 0)",g,,0.0,"(0.1875, -0.1875)",,,,,1,37,93,14,214.70699045900255,,,,,,,,,,,,,,,,,,,,,,,,,214.69921012499253,216.27289691699843,,,,,,,,046602,001,2024-05-11_23h49.09.598,creatingimagesNEW,2024.1.4,None,2024-05-11 23h49.16.785318 -0400,
"(0.25, 0)",g,,0.0,0.0,,,,,1,38,94,2,216.2813807920029,,,,,,,,,,,,,,,,,,,,,,,,,216.27336933399783,217.44405737500347,,,,,,,,046602,001,2024-05-11_23h49.09.598,creatingimagesNEW,2024.1.4,None,2024-05-11 23h49.16.785318 -0400,
"(-0.1875, -0.1875)",b,,0.0,0.0,,,,,1,39,95,45,217.45155979199626,,,,,,,,,,,,,,,,,,,,,,,,,217.44424199999776,219.0148732499947,,,,,,,,046602,001,2024-05-11_23h49.09.598,creatingimagesNEW,2024.1.4,None,2024-05-11 23h49.16.785318 -0400,
"(0.1875, -0.1875)",g,,0.0,0.0,,,,,1,40,96,3,219.0219751669938,,,,,,,,,,,,,,,,,,,,,,,,,219.01503904200217,220.3844246249937,,,,,,,,046602,001,2024-05-11_23h49.09.598,creatingimagesNEW,2024.1.4,None,2024-05-11 23h49.16.785318 -0400,
"(0, -0.25)",g,,"(0.1875, 0.1875)",0.0,,,,,1,41,97,36,220.3972581249982,,,,,,,,,,,,,,,,,,,,,,,,,220.38461608400394,221.96267812499718,,,,,,,,046602,001,2024-05-11_23h49.09.598,creatingimagesNEW,2024.1.4,None,2024-05-11 23h49.16.785318 -0400,
"(0.1875, 0.1875)",g,,0.0,0.0,,,,,1,42,98,1,221.97248104200116,,,,,,,,,,,,,,,,,,,,,,,,,221.96321662499395,223.13547283399384,,,,,,,,046602,001,2024-05-11_23h49.09.598,creatingimagesNEW,2024.1.4,None,2024-05-11 23h49.16.785318 -0400,
"(0.25, 0)",r,,0.0,"(-0.1875, 0.1875)",,,,,1,43,99,26,223.1423267499922,,,,,,,,,,,,,,,,,,,,,,,,,223.13564583400148,224.9088855000009,,,,,,,,046602,001,2024-05-11_23h49.09.598,creatingimagesNEW,2024.1.4,None,2024-05-11 23h49.16.785318 -0400,
"(0.1875, 0.1875)",g,,"(0, -0.25)",0.0,,,,,1,44,100,33,224.96768412500387,,,,,,,,,,,,,,,,,,,,,,,,,224.90960583399283,226.44299875000434,,,,,,,,046602,001,2024-05-11_23h49.09.598,creatingimagesNEW,2024.1.4,None,2024-05-11 23h49.16.785318 -0400,
"(0, -0.25)",r,,0.0,"(0.1875, 0.1875)",,,,,1,45,101,28,226.46390179199807,,,,,,,,,,,,,,,,,,,,,,,,,226.44386391699663,227.84458004200133,,,,,,,,046602,001,2024-05-11_23h49.09.598,creatingimagesNEW,2024.1.4,None,2024-05-11 23h49.16.785318 -0400,
"(-0.1875, -0.1875)",g,,0.0,0.0,,,,,1,46,102,5,227.864585000003,,,,,,,,,,,,,,,,,,,,,,,,,227.84548620900023,229.14222149999114,,,,,,,,046602,001,2024-05-11_23h49.09.598,creatingimagesNEW,2024.1.4,None,2024-05-11 23h49.16.785318 -0400,
"(-0.1875, -0.1875)",r,,0.0,"(0, 0.25)",,,,,1,47,103,29,229.1535424169997,,,,,,,,,,,,,,,,,,,,,,,,,229.14303933399788,230.821569791995,,,,,,,,046602,001,2024-05-11_23h49.09.598,creatingimagesNEW,2024.1.4,None,2024-05-11 23h49.16.785318 -0400,
"(0, 0.25)",b,,"(-0.1875, -0.1875)",0.0,,,,,1,48,104,48,230.88142762499047,,,,,,,,,,,,,,,,,,,,,,,,,230.8238866669999,232.05437437500223,,,,,,,,046602,001,2024-05-11_23h49.09.598,creatingimagesNEW,2024.1.4,None,2024-05-11 23h49.16.785318 -0400,
"(0, 0.25)",r,,0.0,0.0,,,,,1,49,105,16,232.06564116699155,,,,,,,,,,,,,,,,,,,,,,,,,232.05514112499077,233.03902708399983,,,,,,,,046602,001,2024-05-11_23h49.09.598,creatingimagesNEW,2024.1.4,None,2024-05-11 23h49.16.785318 -0400,
"(-0.25, 0)",b,,"(0.1875, -0.1875)",0.0,,,,,1,50,106,54,233.0460090419947,,,,,,,,,,,,,,,,,,,,,,,,,233.03920120900148,234.41428366699256,,,,,,,,046602,001,2024-05-11_23h49.09.598,creatingimagesNEW,2024.1.4,None,2024-05-11 23h49.16.785318 -0400,
"(-0.1875, 0.1875)",r,,0.0,"(0.25, 0)",,,,,1,51,107,31,234.45253466699796,,,,,,,,,,,,,,,,,,,,,,,,,234.4151889999921,236.11909887500224,,,,,,,,046602,001,2024-05-11_23h49.09.598,creatingimagesNEW,2024.1.4,None,2024-05-11 23h49.16.785318 -0400,
"(-0.1875, -0.1875)",g,,0.0,"(0, 0.25)",,,,,1,52,108,13,236.1409891670046,,,,,,,,,,,,,,,,,,,,,,,,,236.12007083400385,238.00764675000391,,,,,,,,046602,001,2024-05-11_23h49.09.598,creatingimagesNEW,2024.1.4,None,2024-05-11 23h49.16.785318 -0400,
"(-0.25, 0)",r,,0.0,"(0.1875, -0.1875)",,,,,1,53,109,30,238.01612366699555,,,,,,,,,,,,,,,,,,,,,,,,,238.0078329169919,239.48072316699836,,,,,,,,046602,001,2024-05-11_23h49.09.598,creatingimagesNEW,2024.1.4,None,2024-05-11 23h49.16.785318 -0400,
"(0.1875, -0.1875)",b,,0.0,0.0,,,,,1,54,110,43,239.48797870900307,,,,,,,,,,,,,,,,,,,,,,,,,239.4808869589906,241.1535819589917,,,,,,,,046602,001,2024-05-11_23h49.09.598,creatingimagesNEW,2024.1.4,None,2024-05-11 23h49.16.785318 -0400,
"(0.1875, -0.1875)",r,,0.0,"(-0.25, 0)",,,,,1,55,111,27,241.18469712499063,,,,,,,,,,,,,,,,,,,,,,,,,241.1544047089992,243.55105737499252,,,,,,,,046602,001,2024-05-11_23h49.09.598,creatingimagesNEW,2024.1.4,None,2024-05-11 23h49.16.785318 -0400,
"(0, -0.25)",r,,0.0,"(0.1875, 0.1875)",,,,,2,0,112,28,243.5608809999976,,,,,,,,,,,,,,,,,,,,,,,,,243.55124074999185,245.22432466699684,,,,,,,,046602,001,2024-05-11_23h49.09.598,creatingimagesNEW,2024.1.4,None,2024-05-11 23h49.16.785318 -0400,
"(0.1875, -0.1875)",r,,0.0,"(-0.25, 0)",,,,,2,1,113,27,245.23301316700235,,,,,,,,,,,,,,,,,,,,,,,,,245.22451133400318,246.79876845900435,,,,,,,,046602,001,2024-05-11_23h49.09.598,creatingimagesNEW,2024.1.4,None,2024-05-11 23h49.16.785318 -0400,
"(-0.1875, 0.1875)",b,,"(0.25, 0)",0.0,,,,,2,2,114,55,246.8368190839974,,,,,,,,,,,,,,,,,,,,,,,,,246.80046129199036,248.20993291700142,,,,,,,,046602,001,2024-05-11_23h49.09.598,creatingimagesNEW,2024.1.4,None,2024-05-11 23h49.16.785318 -0400,
"(0.25, 0)",g,,0.0,"(-0.1875, 0.1875)",,,,,2,3,115,10,248.22046187499654,,,,,,,,,,,,,,,,,,,,,,,,,248.2106995840004,250.0859049169958,,,,,,,,046602,001,2024-05-11_23h49.09.598,creatingimagesNEW,2024.1.4,None,2024-05-11 23h49.16.785318 -0400,
"(0.25, 0)",r,,0.0,"(-0.1875, 0.1875)",,,,,2,4,116,26,250.094528333997,,,,,,,,,,,,,,,,,,,,,,,,,250.08608295899467,252.06007483399299,,,,,,,,046602,001,2024-05-11_23h49.09.598,creatingimagesNEW,2024.1.4,None,2024-05-11 23h49.16.785318 -0400,
"(0, 0.25)",g,,0.0,0.0,,,,,2,5,117,0,252.07673879199137,,,,,,,,,,,,,,,,,,,,,,,,,252.06087487499462,253.34054533399467,,,,,,,,046602,001,2024-05-11_23h49.09.598,creatingimagesNEW,2024.1.4,None,2024-05-11 23h49.16.785318 -0400,
"(-0.1875, 0.1875)",g,,0.0,"(0.25, 0)",,,,,2,6,118,15,253.3485123749997,,,,,,,,,,,,,,,,,,,,,,,,,253.3414929589926,254.81237608399533,,,,,,,,046602,001,2024-05-11_23h49.09.598,creatingimagesNEW,2024.1.4,None,2024-05-11 23h49.16.785318 -0400,
"(0.1875, 0.1875)",g,,0.0,0.0,,,,,2,7,119,1,254.81954158400185,,,,,,,,,,,,,,,,,,,,,,,,,254.81254866700328,256.1894757919945,,,,,,,,046602,001,2024-05-11_23h49.09.598,creatingimagesNEW,2024.1.4,None,2024-05-11 23h49.16.785318 -0400,
"(-0.25, 0)",r,,0.0,0.0,,,,,2,8,120,22,256.19829516699247,,,,,,,,,,,,,,,,,,,,,,,,,256.18982495900127,257.26216062500316,,,,,,,,046602,001,2024-05-11_23h49.09.598,creatingimagesNEW,2024.1.4,None,2024-05-11 23h49.16.785318 -0400,
"(0, -0.25)",g,,0.0,0.0,,,,,2,9,121,4,257.268774458993,,,,,,,,,,,,,,,,,,,,,,,,,257.26232662500115,258.5327739170025,,,,,,,,046602,001,2024-05-11_23h49.09.598,creatingimagesNEW,2024.1.4,None,2024-05-11 23h49.16.785318 -0400,
"(0.1875, 0.1875)",r,,0.0,0.0,,,,,2,10,122,17,258.5396370840026,,,,,,,,,,,,,,,,,,,,,,,,,258.5329415419983,259.70332779199816,,,,,,,,046602,001,2024-05-11_23h49.09.598,creatingimagesNEW,2024.1.4,None,2024-05-11 23h49.16.785318 -0400,
"(-0.25, 0)",g,,0.0,"(0.1875, -0.1875)",,,,,2,11,123,14,259.7102007920039,,,,,,,,,,,,,,,,,,,,,,,,,259.70349879199057,261.2738775839971,,,,,,,,046602,001,2024-05-11_23h49.09.598,creatingimagesNEW,2024.1.4,None,2024-05-11 23h49.16.785318 -0400,
"(0.1875, -0.1875)",b,,"(-0.25, 0)",0.0,,,,,2,12,124,51,261.2915189589985,,,,,,,,,,,,,,,,,,,,,,,,,261.27407512499485,262.7610421249992,,,,,,,,046602,001,2024-05-11_23h49.09.598,creatingimagesNEW,2024.1.4,None,2024-05-11 23h49.16.785318 -0400,
"(0.1875, -0.1875)",g,,0.0,"(-0.25, 0)",,,,,2,13,125,11,262.77060987499135,,,,,,,,,,,,,,,,,,,,,,,,,262.76148770899454,264.9363752089994,,,,,,,,046602,001,2024-05-11_23h49.09.598,creatingimagesNEW,2024.1.4,None,2024-05-11 23h49.16.785318 -0400,
"(0, 0.25)",b,,0.0,0.0,,,,,2,14,126,40,264.9448927499907,,,,,,,,,,,,,,,,,,,,,,,,,264.93654658399464,266.20854091699584,,,,,,,,046602,001,2024-05-11_23h49.09.598,creatingimagesNEW,2024.1.4,None,2024-05-11 23h49.16.785318 -0400,
"(-0.1875, -0.1875)",g,,0.0,0.0,,,,,2,15,127,5,266.2159946669999,,,,,,,,,,,,,,,,,,,,,,,,,266.2087210419995,267.7913328339928,,,,,,,,046602,001,2024-05-11_23h49.09.598,creatingimagesNEW,2024.1.4,None,2024-05-11 23h49.16.785318 -0400,
"(-0.1875, -0.1875)",r,,0.0,"(0, 0.25)",,,,,2,16,128,29,267.8040654590004,,,,,,,,,,,,,,,,,,,,,,,,,267.79180399999314,269.5704455840023,,,,,,,,046602,001,2024-05-11_23h49.09.598,creatingimagesNEW,2024.1.4,None,2024-05-11 23h49.16.785318 -0400,
"(0.25, 0)",b,,0.0,0.0,,,,,2,17,129,42,269.57995379199565,,,,,,,,,,,,,,,,,,,,,,,,,269.57062416699773,270.84334554200177,,,,,,,,046602,001,2024-05-11_23h49.09.598,creatingimagesNEW,2024.1.4,None,2024-05-11 23h49.16.785318 -0400,
"(0.25, 0)",g,,0.0,0.0,,,,,2,18,130,2,270.85010599999805,,,,,,,,,,,,,,,,,,,,,,,,,270.8435115839966,272.41862820899405,,,,,,,,046602,001,2024-05-11_23h49.09.598,creatingimagesNEW,2024.1.4,None,2024-05-11 23h49.16.785318 -0400,
"(-0.1875, 0.1875)",b,,0.0,0.0,,,,,2,19,131,47,272.4322633339907,,,,,,,,,,,,,,,,,,,,,,,,,272.41930449999927,273.6976134169963,,,,,,,,046602,001,2024-05-11_23h49.09.598,creatingimagesNEW,2024.1.4,None,2024-05-11 23h49.16.785318 -0400,
"(-0.1875, 0.1875)",r,,0.0,0.0,,,,,2,20,132,23,273.70479799999157,,,,,,,,,,,,,,,,,,,,,,,,,273.69778154199594,274.86832283399417,,,,,,,,046602,001,2024-05-11_23h49.09.598,creatingimagesNEW,2024.1.4,None,2024-05-11 23h49.16.785318 -0400,
"(-0.25, 0)",g,,"(0.1875, -0.1875)",0.0,,,,,2,21,133,38,274.87540658400394,,,,,,,,,,,,,,,,,,,,,,,,,274.86849525000434,276.5443598749989,,,,,,,,046602,001,2024-05-11_23h49.09.598,creatingimagesNEW,2024.1.4,None,2024-05-11 23h49.16.785318 -0400,
"(0, -0.25)",b,,0.0,0.0,,,,,2,22,134,44,276.56220366699563,,,,,,,,,,,,,,,,,,,,,,,,,276.54510874999687,277.72717520900187,,,,,,,,046602,001,2024-05-11_23h49.09.598,creatingimagesNEW,2024.1.4,None,2024-05-11 23h49.16.785318 -0400,
"(0.25, 0)",g,,"(-0.1875, 0.1875)",0.0,,,,,2,23,135,34,277.73439512499317,,,,,,,,,,,,,,,,,,,,,,,,,277.7273549169913,279.2991488749976,,,,,,,,046602,001,2024-05-11_23h49.09.598,creatingimagesNEW,2024.1.4,None,2024-05-11 23h49.16.785318 -0400,
"(0.1875, -0.1875)",g,,0.0,0.0,,,,,2,24,136,3,279.3090997919935,,,,,,,,,,,,,,,,,,,,,,,,,279.2993389589974,280.67255170899443,,,,,,,,046602,001,2024-05-11_23h49.09.598,creatingimagesNEW,2024.1.4,None,2024-05-11 23h49.16.785318 -0400,
"(0.1875, 0.1875)",b,,0.0,0.0,,,,,2,25,137,41,280.68182487499143,,,,,,,,,,,,,,,,,,,,,,,,,280.6727174999978,282.0450237089972,,,,,,,,046602,001,2024-05-11_23h49.09.598,creatingimagesNEW,2024.1.4,None,2024-05-11 23h49.16.785318 -0400,
"(-0.25, 0)",g,,0.0,0.0,,,,,2,26,138,6,282.0522310840024,,,,,,,,,,,,,,,,,,,,,,,,,282.0451941670035,283.1156551250024,,,,,,,,046602,001,2024-05-11_23h49.09.598,creatingimagesNEW,2024.1.4,None,2024-05-11 23h49.16.785318 -0400,
"(-0.1875, 0.1875)",r,,0.0,"(0.25, 0)",,,,,2,27,139,31,283.1222930840013,,,,,,,,,,,,,,,,,,,,,,,,,283.1158255000046,284.48619833399425,,,,,,,,046602,001,2024-05-11_23h49.09.598,creatingimagesNEW,2024.1.4,None,2024-05-11 23h49.16.785318 -0400,
"(-0.1875, -0.1875)",g,,0.0,"(0, 0.25)",,,,,2,28,140,13,284.496203333998,,,,,,,,,,,,,,,,,,,,,,,,,284.48636533399986,286.06027874999563,,,,,,,,046602,001,2024-05-11_23h49.09.598,creatingimagesNEW,2024.1.4,None,2024-05-11 23h49.16.785318 -0400,
"(-0.25, 0)",b,,0.0,0.0,,,,,2,29,141,46,286.0703471250017,,,,,,,,,,,,,,,,,,,,,,,,,286.06045437499415,287.23573904199293,,,,,,,,046602,001,2024-05-11_23h49.09.598,creatingimagesNEW,2024.1.4,None,2024-05-11 23h49.16.785318 -0400,
"(-0.1875, 0.1875)",g,,0.0,0.0,,,,,2,30,142,7,287.25472899999295,,,,,,,,,,,,,,,,,,,,,,,,,287.2390283339919,288.6306478339975,,,,,,,,046602,001,2024-05-11_23h49.09.598,creatingimagesNEW,2024.1.4,None,2024-05-11 23h49.16.785318 -0400,
"(0.1875, 0.1875)",g,,"(0, -0.25)",0.0,,,,,2,31,143,33,288.63774741700036,,,,,,,,,,,,,,,,,,,,,,,,,288.6308384589938,290.1015964590042,,,,,,,,046602,001,2024-05-11_23h49.09.598,creatingimagesNEW,2024.1.4,None,2024-05-11 23h49.16.785318 -0400,
"(-0.1875, -0.1875)",g,,"(0, 0.25)",0.0,,,,,2,32,144,37,290.1096761249937,,,,,,,,,,,,,,,,,,,,,,,,,290.10176891699666,291.4736526249908,,,,,,,,046602,001,2024-05-11_23h49.09.598,creatingimagesNEW,2024.1.4,None,2024-05-11 23h49.16.785318 -0400,
"(-0.1875, -0.1875)",b,,"(0, 0.25)",0.0,,,,,2,33,145,53,291.486256624994,,,,,,,,,,,,,,,,,,,,,,,,,291.47441891700146,293.0533257499919,,,,,,,,046602,001,2024-05-11_23h49.09.598,creatingimagesNEW,2024.1.4,None,2024-05-11 23h49.16.785318 -0400,
"(0.1875, 0.1875)",g,,0.0,"(0, -0.25)",,,,,2,34,146,9,293.0629448749969,,,,,,,,,,,,,,,,,,,,,,,,,293.0536903750035,294.2262206669984,,,,,,,,046602,001,2024-05-11_23h49.09.598,creatingimagesNEW,2024.1.4,None,2024-05-11 23h49.16.785318 -0400,
"(0, -0.25)",b,,"(0.1875, 0.1875)",0.0,,,,,2,35,147,52,294.23296566700446,,,,,,,,,,,,,,,,,,,,,,,,,294.2264051249949,295.69766870899184,,,,,,,,046602,001,2024-05-11_23h49.09.598,creatingimagesNEW,2024.1.4,None,2024-05-11 23h49.16.785318 -0400,
"(0.1875, 0.1875)",r,,0.0,"(0, -0.25)",,,,,2,36,148,25,295.70867962499324,,,,,,,,,,,,,,,,,,,,,,,,,295.6978578339913,297.6828733750008,,,,,,,,046602,001,2024-05-11_23h49.09.598,creatingimagesNEW,2024.1.4,None,2024-05-11 23h49.16.785318 -0400,
"(0, 0.25)",r,,0.0,"(-0.1875, -0.1875)",,,,,2,37,149,24,297.69450899999356,,,,,,,,,,,,,,,,,,,,,,,,,297.6836003339995,299.0596796250029,,,,,,,,046602,001,2024-05-11_23h49.09.598,creatingimagesNEW,2024.1.4,None,2024-05-11 23h49.16.785318 -0400,
"(0, -0.25)",g,,0.0,"(0.1875, 0.1875)",,,,,2,38,150,12,299.06661987499683,,,,,,,,,,,,,,,,,,,,,,,,,299.0598562499945,300.9313048339973,,,,,,,,046602,001,2024-05-11_23h49.09.598,creatingimagesNEW,2024.1.4,None,2024-05-11 23h49.16.785318 -0400,
"(-0.25, 0)",b,,"(0.1875, -0.1875)",0.0,,,,,2,39,151,54,300.9400748749904,,,,,,,,,,,,,,,,,,,,,,,,,300.93148033399484,302.10352708399296,,,,,,,,046602,001,2024-05-11_23h49.09.598,creatingimagesNEW,2024.1.4,None,2024-05-11 23h49.16.785318 -0400,
"(0, 0.25)",r,,0.0,0.0,,,,,2,40,152,16,302.1103077500011,,,,,,,,,,,,,,,,,,,,,,,,,302.10369795899896,303.1728586669924,,,,,,,,046602,001,2024-05-11_23h49.09.598,creatingimagesNEW,2024.1.4,None,2024-05-11 23h49.16.785318 -0400,
"(-0.25, 0)",r,,0.0,"(0.1875, -0.1875)",,,,,2,41,153,30,303.17992708399834,,,,,,,,,,,,,,,,,,,,,,,,,303.17302891699364,304.54286741699616,,,,,,,,046602,001,2024-05-11_23h49.09.598,creatingimagesNEW,2024.1.4,None,2024-05-11 23h49.16.785318 -0400,
"(0, 0.25)",b,,"(-0.1875, -0.1875)",0.0,,,,,2,42,154,48,304.55258804200275,,,,,,,,,,,,,,,,,,,,,,,,,304.54303575000085,305.81589533400256,,,,,,,,046602,001,2024-05-11_23h49.09.598,creatingimagesNEW,2024.1.4,None,2024-05-11 23h49.16.785318 -0400,
"(0.1875, 0.1875)",b,,"(0, -0.25)",0.0,,,,,2,43,155,49,305.82300695899175,,,,,,,,,,,,,,,,,,,,,,,,,305.81607562499994,307.09266383400245,,,,,,,,046602,001,2024-05-11_23h49.09.598,creatingimagesNEW,2024.1.4,None,2024-05-11 23h49.16.785318 -0400,
"(-0.1875, 0.1875)",g,,"(0.25, 0)",0.0,,,,,2,44,156,39,307.10390537499916,,,,,,,,,,,,,,,,,,,,,,,,,307.0937025000021,308.473379499992,,,,,,,,046602,001,2024-05-11_23h49.09.598,creatingimagesNEW,2024.1.4,None,2024-05-11 23h49.16.785318 -0400,
"(0, 0.25)",g,,"(-0.1875, -0.1875)",0.0,,,,,2,45,157,32,308.48569120900356,,,,,,,,,,,,,,,,,,,,,,,,,308.47422324999934,309.85785745899193,,,,,,,,046602,001,2024-05-11_23h49.09.598,creatingimagesNEW,2024.1.4,None,2024-05-11 23h49.16.785318 -0400,
"(0.1875, -0.1875)",r,,0.0,0.0,,,,,2,46,158,19,309.86506637500133,,,,,,,,,,,,,,,,,,,,,,,,,309.8580531250045,311.6290199590003,,,,,,,,046602,001,2024-05-11_23h49.09.598,creatingimagesNEW,2024.1.4,None,2024-05-11 23h49.16.785318 -0400,
"(0, -0.25)",g,,"(0.1875, 0.1875)",0.0,,,,,2,47,159,36,311.63945508399047,,,,,,,,,,,,,,,,,,,,,,,,,311.62933670899656,313.4348528339906,,,,,,,,046602,001,2024-05-11_23h49.09.598,creatingimagesNEW,2024.1.4,None,2024-05-11 23h49.16.785318 -0400,
"(0.1875, -0.1875)",g,,"(-0.25, 0)",0.0,,,,,2,48,160,35,313.4485639589984,,,,,,,,,,,,,,,,,,,,,,,,,313.4355894170003,314.9124998339976,,,,,,,,046602,001,2024-05-11_23h49.09.598,creatingimagesNEW,2024.1.4,None,2024-05-11 23h49.16.785318 -0400,
"(0.1875, -0.1875)",b,,0.0,0.0,,,,,2,49,161,43,314.9225796249957,,,,,,,,,,,,,,,,,,,,,,,,,314.91266895899025,316.0856980840035,,,,,,,,046602,001,2024-05-11_23h49.09.598,creatingimagesNEW,2024.1.4,None,2024-05-11 23h49.16.785318 -0400,
"(0, -0.25)",r,,0.0,0.0,,,,,2,50,162,20,316.0933719589957,,,,,,,,,,,,,,,,,,,,,,,,,316.08587850000185,317.15825941700314,,,,,,,,046602,001,2024-05-11_23h49.09.598,creatingimagesNEW,2024.1.4,None,2024-05-11 23h49.16.785318 -0400,
"(0.25, 0)",b,,"(-0.1875, 0.1875)",0.0,,,,,2,51,163,50,317.1682558750035,,,,,,,,,,,,,,,,,,,,,,,,,317.1589447919978,318.4383694999997,,,,,,,,046602,001,2024-05-11_23h49.09.598,creatingimagesNEW,2024.1.4,None,2024-05-11 23h49.16.785318 -0400,
"(0.25, 0)",r,,0.0,0.0,,,,,2,52,164,18,318.445291541997,,,,,,,,,,,,,,,,,,,,,,,,,318.43854662499507,319.6085477919987,,,,,,,,046602,001,2024-05-11_23h49.09.598,creatingimagesNEW,2024.1.4,None,2024-05-11 23h49.16.785318 -0400,
"(-0.1875, -0.1875)",b,,0.0,0.0,,,,,2,53,165,45,319.6153457920009,,,,,,,,,,,,,,,,,,,,,,,,,319.6087244169903,320.8786922500003,,,,,,,,046602,001,2024-05-11_23h49.09.598,creatingimagesNEW,2024.1.4,None,2024-05-11 23h49.16.785318 -0400,
"(-0.1875, -0.1875)",r,,0.0,0.0,,,,,2,54,166,21,320.88562433399784,,,,,,,,,,,,,,,,,,,,,,,,,320.8788641669962,322.248694666996,,,,,,,,046602,001,2024-05-11_23h49.09.598,creatingimagesNEW,2024.1.4,None,2024-05-11 23h49.16.785318 -0400,
"(0, 0.25)",g,,0.0,"(-0.1875, -0.1875)",,,,,2,55,167,8,322.2557915840007,,,,,,,,,,,,,,,,,,,,,,,,,322.2488601669902,324.01886991699575,,,,,,,,046602,001,2024-05-11_23h49.09.598,creatingimagesNEW,2024.1.4,None,2024-05-11 23h49.16.785318 -0400,
"(0.1875, 0.1875)",b,,"(0, -0.25)",0.0,,,,,3,0,168,49,324.0291256670025,,,,,,,,,,,,,,,,,,,,,,,,,324.01904408399423,325.19220212499204,,,,,,,,046602,001,2024-05-11_23h49.09.598,creatingimagesNEW,2024.1.4,None,2024-05-11 23h49.16.785318 -0400,
"(0.1875, 0.1875)",b,,0.0,0.0,,,,,3,1,169,41,325.1990594169911,,,,,,,,,,,,,,,,,,,,,,,,,325.1923668340023,326.36245595899527,,,,,,,,046602,001,2024-05-11_23h49.09.598,creatingimagesNEW,2024.1.4,None,2024-05-11 23h49.16.785318 -0400,
"(-0.1875, -0.1875)",r,,0.0,0.0,,,,,3,2,170,21,326.36930404200393,,,,,,,,,,,,,,,,,,,,,,,,,326.3626235839911,327.5330038749962,,,,,,,,046602,001,2024-05-11_23h49.09.598,creatingimagesNEW,2024.1.4,None,2024-05-11 23h49.16.785318 -0400,
"(0, 0.25)",b,,"(-0.1875, -0.1875)",0.0,,,,,3,3,171,48,327.54358633399534,,,,,,,,,,,,,,,,,,,,,,,,,327.5335306670022,328.80866329200217,,,,,,,,046602,001,2024-05-11_23h49.09.598,creatingimagesNEW,2024.1.4,None,2024-05-11 23h49.16.785318 -0400,
"(-0.1875, -0.1875)",g,,"(0, 0.25)",0.0,,,,,3,4,172,37,328.8205786250037,,,,,,,,,,,,,,,,,,,,,,,,,328.8090754589939,330.38477991700347,,,,,,,,046602,001,2024-05-11_23h49.09.598,creatingimagesNEW,2024.1.4,None,2024-05-11 23h49.16.785318 -0400,
"(0, -0.25)",g,,0.0,"(0.1875, 0.1875)",,,,,3,5,173,12,330.39484679199813,,,,,,,,,,,,,,,,,,,,,,,,,330.38495470899215,331.65918674999557,,,,,,,,046602,001,2024-05-11_23h49.09.598,creatingimagesNEW,2024.1.4,None,2024-05-11 23h49.16.785318 -0400,
"(0, -0.25)",g,,0.0,0.0,,,,,3,6,174,4,331.66614066700276,,,,,,,,,,,,,,,,,,,,,,,,,331.6593529590027,333.14317929199024,,,,,,,,046602,001,2024-05-11_23h49.09.598,creatingimagesNEW,2024.1.4,None,2024-05-11 23h49.16.785318 -0400,
"(0.1875, 0.1875)",g,,"(0, -0.25)",0.0,,,,,3,7,175,33,333.1641325419914,,,,,,,,,,,,,,,,,,,,,,,,,333.1439198750013,334.7289741669956,,,,,,,,046602,001,2024-05-11_23h49.09.598,creatingimagesNEW,2024.1.4,None,2024-05-11 23h49.16.785318 -0400,
"(-0.1875, 0.1875)",b,,"(0.25, 0)",0.0,,,,,3,8,176,55,334.7389261670032,,,,,,,,,,,,,,,,,,,,,,,,,334.7291526249901,336.4031991669908,,,,,,,,046602,001,2024-05-11_23h49.09.598,creatingimagesNEW,2024.1.4,None,2024-05-11 23h49.16.785318 -0400,
"(0.1875, -0.1875)",b,,"(-0.25, 0)",0.0,,,,,3,9,177,51,336.41730012500193,,,,,,,,,,,,,,,,,,,,,,,,,336.40337733399065,338.08533012500266,,,,,,,,046602,001,2024-05-11_23h49.09.598,creatingimagesNEW,2024.1.4,None,2024-05-11 23h49.16.785318 -0400,
"(0.25, 0)",r,,0.0,"(-0.1875, 0.1875)",,,,,3,10,178,26,338.099972416996,,,,,,,,,,,,,,,,,,,,,,,,,338.08605791699665,339.5657793749997,,,,,,,,046602,001,2024-05-11_23h49.09.598,creatingimagesNEW,2024.1.4,None,2024-05-11 23h49.16.785318 -0400,
"(-0.1875, -0.1875)",b,,"(0, 0.25)",0.0,,,,,3,11,179,53,339.5814210840035,,,,,,,,,,,,,,,,,,,,,,,,,339.5661191669933,341.147618374991,,,,,,,,046602,001,2024-05-11_23h49.09.598,creatingimagesNEW,2024.1.4,None,2024-05-11 23h49.16.785318 -0400,
"(0, 0.25)",r,,0.0,0.0,,,,,3,12,180,16,341.1628758339939,,,,,,,,,,,,,,,,,,,,,,,,,341.1479832500045,342.22885854200285,,,,,,,,046602,001,2024-05-11_23h49.09.598,creatingimagesNEW,2024.1.4,None,2024-05-11 23h49.16.785318 -0400,
"(-0.1875, 0.1875)",g,,"(0.25, 0)",0.0,,,,,3,13,181,39,342.2359049999941,,,,,,,,,,,,,,,,,,,,,,,,,342.2290320000029,343.89962062500126,,,,,,,,046602,001,2024-05-11_23h49.09.598,creatingimagesNEW,2024.1.4,None,2024-05-11 23h49.16.785318 -0400,
"(-0.25, 0)",g,,"(0.1875, -0.1875)",0.0,,,,,3,14,182,38,343.9096819169936,,,,,,,,,,,,,,,,,,,,,,,,,343.8997881249961,345.77373662499303,,,,,,,,046602,001,2024-05-11_23h49.09.598,creatingimagesNEW,2024.1.4,None,2024-05-11 23h49.16.785318 -0400,
"(0.1875, 0.1875)",r,,0.0,"(0, -0.25)",,,,,3,15,183,25,345.78415579200373,,,,,,,,,,,,,,,,,,,,,,,,,345.77390729199396,347.04768370899546,,,,,,,,046602,001,2024-05-11_23h49.09.598,creatingimagesNEW,2024.1.4,None,2024-05-11 23h49.16.785318 -0400,
"(0.1875, -0.1875)",g,,0.0,0.0,,,,,3,16,184,3,347.054522624996,,,,,,,,,,,,,,,,,,,,,,,,,347.0478497919976,348.32524462499714,,,,,,,,046602,001,2024-05-11_23h49.09.598,creatingimagesNEW,2024.1.4,None,2024-05-11 23h49.16.785318 -0400,
"(-0.25, 0)",b,,0.0,0.0,,,,,3,17,185,46,348.33699183400313,,,,,,,,,,,,,,,,,,,,,,,,,348.3260681669926,349.80103929199686,,,,,,,,046602,001,2024-05-11_23h49.09.598,creatingimagesNEW,2024.1.4,None,2024-05-11 23h49.16.785318 -0400,
"(-0.25, 0)",r,,0.0,0.0,,,,,3,18,186,22,349.8099592090002,,,,,,,,,,,,,,,,,,,,,,,,,349.8012155000033,351.0734460840031,,,,,,,,046602,001,2024-05-11_23h49.09.598,creatingimagesNEW,2024.1.4,None,2024-05-11 23h49.16.785318 -0400,
"(0.1875, 0.1875)",r,,0.0,0.0,,,,,3,19,187,17,351.08032591699157,,,,,,,,,,,,,,,,,,,,,,,,,351.073616624999,352.1436951249925,,,,,,,,046602,001,2024-05-11_23h49.09.598,creatingimagesNEW,2024.1.4,None,2024-05-11 23h49.16.785318 -0400,
"(0, -0.25)",g,,"(0.1875, 0.1875)",0.0,,,,,3,20,188,36,352.15173866700206,,,,,,,,,,,,,,,,,,,,,,,,,352.14404937499785,353.8177998750034,,,,,,,,046602,001,2024-05-11_23h49.09.598,creatingimagesNEW,2024.1.4,None,2024-05-11 23h49.16.785318 -0400,
"(-0.1875, -0.1875)",g,,0.0,0.0,,,,,3,21,189,5,353.8432761669974,,,,,,,,,,,,,,,,,,,,,,,,,353.8187150839949,354.9294450000016,,,,,,,,046602,001,2024-05-11_23h49.09.598,creatingimagesNEW,2024.1.4,None,2024-05-11 23h49.16.785318 -0400,
"(0, 0.25)",g,,0.0,"(-0.1875, -0.1875)",,,,,3,22,190,8,354.93677566699625,,,,,,,,,,,,,,,,,,,,,,,,,354.9296237499948,356.600396875001,,,,,,,,046602,001,2024-05-11_23h49.09.598,creatingimagesNEW,2024.1.4,None,2024-05-11 23h49.16.785318 -0400,
"(0.25, 0)",g,,0.0,"(-0.1875, 0.1875)",,,,,3,23,191,10,356.6087865419977,,,,,,,,,,,,,,,,,,,,,,,,,356.60057562499424,358.2770507499954,,,,,,,,046602,001,2024-05-11_23h49.09.598,creatingimagesNEW,2024.1.4,None,2024-05-11 23h49.16.785318 -0400,
"(0.1875, 0.1875)",g,,0.0,0.0,,,,,3,24,192,1,358.2880459589942,,,,,,,,,,,,,,,,,,,,,,,,,358.27753870899323,359.56264004200057,,,,,,,,046602,001,2024-05-11_23h49.09.598,creatingimagesNEW,2024.1.4,None,2024-05-11 23h49.16.785318 -0400,
"(0.1875, -0.1875)",r,,0.0,0.0,,,,,3,25,193,19,359.57050249999156,,,,,,,,,,,,,,,,,,,,,,,,,359.56290787499165,360.73450012499234,,,,,,,,046602,001,2024-05-11_23h49.09.598,creatingimagesNEW,2024.1.4,None,2024-05-11 23h49.16.785318 -0400,
"(0.1875, 0.1875)",g,,0.0,"(0, -0.25)",,,,,3,26,194,9,360.7444045000011,,,,,,,,,,,,,,,,,,,,,,,,,360.7349769589928,362.3084749589907,,,,,,,,046602,001,2024-05-11_23h49.09.598,creatingimagesNEW,2024.1.4,None,2024-05-11 23h49.16.785318 -0400,
"(-0.1875, 0.1875)",b,,0.0,0.0,,,,,3,27,195,47,362.31682512500265,,,,,,,,,,,,,,,,,,,,,,,,,362.30864908399235,363.38018870899396,,,,,,,,046602,001,2024-05-11_23h49.09.598,creatingimagesNEW,2024.1.4,None,2024-05-11 23h49.16.785318 -0400,
"(0.1875, -0.1875)",g,,0.0,"(-0.25, 0)",,,,,3,28,196,11,363.38695583399385,,,,,,,,,,,,,,,,,,,,,,,,,363.3803625839937,365.05728920899855,,,,,,,,046602,001,2024-05-11_23h49.09.598,creatingimagesNEW,2024.1.4,None,2024-05-11 23h49.16.785318 -0400,
"(0, -0.25)",r,,0.0,"(0.1875, 0.1875)",,,,,3,29,197,28,365.0661842499976,,,,,,,,,,,,,,,,,,,,,,,,,365.05756400000246,366.42977245899965,,,,,,,,046602,001,2024-05-11_23h49.09.598,creatingimagesNEW,2024.1.4,None,2024-05-11 23h49.16.785318 -0400,
"(0, 0.25)",r,,0.0,"(-0.1875, -0.1875)",,,,,3,30,198,24,366.43856774999585,,,,,,,,,,,,,,,,,,,,,,,,,366.42994687499595,367.60165916699043,,,,,,,,046602,001,2024-05-11_23h49.09.598,creatingimagesNEW,2024.1.4,None,2024-05-11 23h49.16.785318 -0400,
"(0.25, 0)",b,,"(-0.1875, 0.1875)",0.0,,,,,3,31,199,50,367.61004879199027,,,,,,,,,,,,,,,,,,,,,,,,,367.6019521249982,368.9854560840031,,,,,,,,046602,001,2024-05-11_23h49.09.598,creatingimagesNEW,2024.1.4,None,2024-05-11 23h49.16.785318 -0400,
"(-0.1875, 0.1875)",r,,0.0,0.0,,,,,3,32,200,23,369.00236358400434,,,,,,,,,,,,,,,,,,,,,,,,,368.9872095419996,370.26738312499947,,,,,,,,046602,001,2024-05-11_23h49.09.598,creatingimagesNEW,2024.1.4,None,2024-05-11 23h49.16.785318 -0400,
"(-0.1875, -0.1875)",b,,0.0,0.0,,,,,3,33,201,45,370.2748183340009,,,,,,,,,,,,,,,,,,,,,,,,,370.26757599999837,371.4379187919985,,,,,,,,046602,001,2024-05-11_23h49.09.598,creatingimagesNEW,2024.1.4,None,2024-05-11 23h49.16.785318 -0400,
"(-0.25, 0)",g,,0.0,"(0.1875, -0.1875)",,,,,3,34,202,14,371.44493366699317,,,,,,,,,,,,,,,,,,,,,,,,,371.438089999996,373.3113258749945,,,,,,,,046602,001,2024-05-11_23h49.09.598,creatingimagesNEW,2024.1.4,None,2024-05-11 23h49.16.785318 -0400,
"(-0.1875, 0.1875)",g,,0.0,0.0,,,,,3,35,203,7,373.37388812500285,,,,,,,,,,,,,,,,,,,,,,,,,373.3120870839921,374.844061041993,,,,,,,,046602,001,2024-05-11_23h49.09.598,creatingimagesNEW,2024.1.4,None,2024-05-11 23h49.16.785318 -0400,
"(0.25, 0)",g,,0.0,0.0,,,,,3,36,204,2,374.8575087089994,,,,,,,,,,,,,,,,,,,,,,,,,374.8448182919965,376.22246099999757,,,,,,,,046602,001,2024-05-11_23h49.09.598,creatingimagesNEW,2024.1.4,None,2024-05-11 23h49.16.785318 -0400,
"(0.1875, -0.1875)",g,,"(-0.25, 0)",0.0,,,,,3,37,205,35,376.229572583994,,,,,,,,,,,,,,,,,,,,,,,,,376.22263566699985,377.79395362499054,,,,,,,,046602,001,2024-05-11_23h49.09.598,creatingimagesNEW,2024.1.4,None,2024-05-11 23h49.16.785318 -0400,
"(0, -0.25)",r,,0.0,0.0,,,,,3,38,206,20,377.8250273339945,,,,,,,,,,,,,,,,,,,,,,,,,377.79431829199893,378.8939387499995,,,,,,,,046602,001,2024-05-11_23h49.09.598,creatingimagesNEW,2024.1.4,None,2024-05-11 23h49.16.785318 -0400,
"(-0.25, 0)",g,,0.0,0.0,,,,,3,39,207,6,378.9011614170013,,,,,,,,,,,,,,,,,,,,,,,,,378.8941161669936,380.26744108399726,,,,,,,,046602,001,2024-05-11_23h49.09.598,creatingimagesNEW,2024.1.4,None,2024-05-11 23h49.16.785318 -0400,
"(0.1875, -0.1875)",b,,0.0,0.0,,,,,3,40,208,43,380.281535874994,,,,,,,,,,,,,,,,,,,,,,,,,380.26827462499205,381.6467905000027,,,,,,,,046602,001,2024-05-11_23h49.09.598,creatingimagesNEW,2024.1.4,None,2024-05-11 23h49.16.785318 -0400,
"(-0.25, 0)",b,,"(0.1875, -0.1875)",0.0,,,,,3,41,209,54,381.6555087500019,,,,,,,,,,,,,,,,,,,,,,,,,381.64696191699477,383.11966770899016,,,,,,,,046602,001,2024-05-11_23h49.09.598,creatingimagesNEW,2024.1.4,None,2024-05-11 23h49.16.785318 -0400,
"(0.25, 0)",g,,"(-0.1875, 0.1875)",0.0,,,,,3,42,210,34,383.1266978749918,,,,,,,,,,,,,,,,,,,,,,,,,383.11983324999164,384.5902326249925,,,,,,,,046602,001,2024-05-11_23h49.09.598,creatingimagesNEW,2024.1.4,None,2024-05-11 23h49.16.785318 -0400,
"(0.25, 0)",b,,0.0,0.0,,,,,3,43,211,42,384.5975150000013,,,,,,,,,,,,,,,,,,,,,,,,,384.5904020839953,386.0612882919959,,,,,,,,046602,001,2024-05-11_23h49.09.598,creatingimagesNEW,2024.1.4,None,2024-05-11 23h49.16.785318 -0400,
"(-0.25, 0)",r,,0.0,"(0.1875, -0.1875)",,,,,3,44,212,30,386.0702045420039,,,,,,,,,,,,,,,,,,,,,,,,,386.06146087500383,387.4337875420024,,,,,,,,046602,001,2024-05-11_23h49.09.598,creatingimagesNEW,2024.1.4,None,2024-05-11 23h49.16.785318 -0400,
"(0, -0.25)",b,,"(0.1875, 0.1875)",0.0,,,,,3,45,213,52,387.4435472500045,,,,,,,,,,,,,,,,,,,,,,,,,387.433962583993,389.32473762499285,,,,,,,,046602,001,2024-05-11_23h49.09.598,creatingimagesNEW,2024.1.4,None,2024-05-11 23h49.16.785318 -0400,
"(0, 0.25)",b,,0.0,0.0,,,,,3,46,214,40,389.3418062499986,,,,,,,,,,,,,,,,,,,,,,,,,389.3254871669924,390.4071463750006,,,,,,,,046602,001,2024-05-11_23h49.09.598,creatingimagesNEW,2024.1.4,None,2024-05-11 23h49.16.785318 -0400,
"(0.1875, -0.1875)",r,,0.0,"(-0.25, 0)",,,,,3,47,215,27,390.41473750000296,,,,,,,,,,,,,,,,,,,,,,,,,390.40733862499474,391.7787513749936,,,,,,,,046602,001,2024-05-11_23h49.09.598,creatingimagesNEW,2024.1.4,None,2024-05-11 23h49.16.785318 -0400,
"(-0.1875, 0.1875)",r,,0.0,"(0.25, 0)",,,,,3,48,216,31,391.7857674169936,,,,,,,,,,,,,,,,,,,,,,,,,391.77892916699057,393.05171437500394,,,,,,,,046602,001,2024-05-11_23h49.09.598,creatingimagesNEW,2024.1.4,None,2024-05-11 23h49.16.785318 -0400,
"(-0.1875, -0.1875)",g,,0.0,"(0, 0.25)",,,,,3,49,217,13,393.07083962499746,,,,,,,,,,,,,,,,,,,,,,,,,393.05274312499387,394.7378645419958,,,,,,,,046602,001,2024-05-11_23h49.09.598,creatingimagesNEW,2024.1.4,None,2024-05-11 23h49.16.785318 -0400,
"(0, -0.25)",b,,0.0,0.0,,,,,3,50,218,44,394.74979179199727,,,,,,,,,,,,,,,,,,,,,,,,,394.7382043749967,395.9158687500021,,,,,,,,046602,001,2024-05-11_23h49.09.598,creatingimagesNEW,2024.1.4,None,2024-05-11 23h49.16.785318 -0400,
"(0, 0.25)",g,,"(-0.1875, -0.1875)",0.0,,,,,3,51,219,32,395.92297829200106,,,,,,,,,,,,,,,,,,,,,,,,,395.916043374993,397.18791158399836,,,,,,,,046602,001,2024-05-11_23h49.09.598,creatingimagesNEW,2024.1.4,None,2024-05-11 23h49.16.785318 -0400,
"(-0.1875, 0.1875)",g,,0.0,"(0.25, 0)",,,,,3,52,220,15,397.19569316699926,,,,,,,,,,,,,,,,,,,,,,,,,397.18809966699337,399.06174433400156,,,,,,,,046602,001,2024-05-11_23h49.09.598,creatingimagesNEW,2024.1.4,None,2024-05-11 23h49.16.785318 -0400,
"(0, 0.25)",g,,0.0,0.0,,,,,3,53,221,0,399.0760994589946,,,,,,,,,,,,,,,,,,,,,,,,,399.0625366669992,400.562001667,,,,,,,,046602,001,2024-05-11_23h49.09.598,creatingimagesNEW,2024.1.4,None,2024-05-11 23h49.16.785318 -0400,
"(-0.1875, -0.1875)",r,,0.0,"(0, 0.25)",,,,,3,54,222,29,400.5731242089969,,,,,,,,,,,,,,,,,,,,,,,,,400.562710416998,401.9382667919999,,,,,,,,046602,001,2024-05-11_23h49.09.598,creatingimagesNEW,2024.1.4,None,2024-05-11 23h49.16.785318 -0400,
"(0.25, 0)",r,,0.0,0.0,,,,,3,55,223,18,401.94524466700386,,,,,,,,,,,,,,,,,,,,,,,,,401.9384422919975,403.40920358400035,,,,,,,,046602,001,2024-05-11_23h49.09.598,creatingimagesNEW,2024.1.4,None,2024-05-11 23h49.16.785318 -0400,
,,,,,,,,,,,,,,,,,,,,,,,,,,,,,,,,,,,,,,,,403.40931454199017,403.42736324999714,403.42736324999714,404.7755161249952,space,1.3404440000012983,None,046602,001,2024-05-11_23h49.09.598,creatingimagesNEW,2024.1.4,None,2024-05-11 23h49.16.785318 -0400,
