triangle_pos,triangle_color,pink_circle_pos,trials24.thisRepN,trials24.thisTrialN,trials24.thisN,trials24.thisIndex,thisRow.t,notes,trial.started,fixation.started,circle1.started,circle2.started,circle3.started,circle4.started,circle5.started,circle6.started,circle7.started,triangle1.started,mouse.started,fixation.stopped,trial.stopped,mouse.x,mouse.y,mouse.leftButton,mouse.midButton,mouse.rightButton,mouse.corr,participant,session,date,expName,psychopyVersion,frameRate,expStart,
"(0, 0.25)",g,"(-0.1875, -0.1875)",0,0,0,8,0.04226895800093189,,0.02464141699601896,0.04226895800093189,1.0066124580043834,1.0066124580043834,1.0066124580043834,1.0066124580043834,1.0066124580043834,1.0066124580043834,1.0066124580043834,1.0066124580043834,1.0064489580108784,1.042597374995239,6.1489141669881064,-0.023333333333333334,0.24,1,0,0,[],091939,001,2024-05-04_14h59.53.363,creatingimages,2024.1.4,None,2024-05-04 14h59.59.770818 -0400,
"(-0.1875, -0.1875)",p,0.0,0,1,1,21,6.158495749987196,,6.150076582998736,6.158495749987196,7.156208417000016,7.156208417000016,7.156208417000016,7.156208417000016,7.156208417000016,7.156208417000016,7.156208417000016,7.156208417000016,1.006331417011097,7.156208417000016,8.399173791985959,-0.18333333333333332,-0.17444444444444446,1,0,0,[],091939,001,2024-05-04_14h59.53.363,creatingimages,2024.1.4,None,2024-05-04 14h59.59.770818 -0400,
"(0.1875, -0.1875)",g,"(0.25, 0)",0,2,2,11,8.40890212499653,,8.399913832981838,8.40890212499653,9.406201582984067,9.406201582984067,9.406201582984067,9.406201582984067,9.406201582984067,9.406201582984067,9.406201582984067,9.406201582984067,1.006473458983237,9.406201582984067,10.566131041996414,0.16777777777777778,-0.21222222222222223,1,0,0,[],091939,001,2024-05-04_14h59.53.363,creatingimages,2024.1.4,None,2024-05-04 14h59.59.770818 -0400,
"(0, -0.25)",g,"(-0.1875, 0.1875)",0,3,3,12,10.575187999987975,,10.566928541986272,10.575187999987975,11.573164542001905,11.573164542001905,11.573164542001905,11.573164542001905,11.573164542001905,11.573164542001905,11.573164542001905,11.573164542001905,1.0064484999747947,11.573164542001905,12.41584045800846,0.008888888888888889,-0.27111111111111114,1,0,0,[],091939,001,2024-05-04_14h59.53.363,creatingimages,2024.1.4,None,2024-05-04 14h59.59.770818 -0400,
"(0.25, 0)",g,"(0, 0.25)",0,4,4,10,12.425596666987985,,12.416570957982913,12.425596666987985,13.422166000003926,13.422166000003926,13.422166000003926,13.422166000003926,13.422166000003926,13.422166000003926,13.422166000003926,13.422166000003926,1.0057815829932224,13.422166000003926,14.132676582987187,0.2388888888888889,-0.02,1,0,0,[],091939,001,2024-05-04_14h59.53.363,creatingimages,2024.1.4,None,2024-05-04 14h59.59.770818 -0400,
"(0.25, 0)",p,0.0,0,5,5,18,14.142392499983544,,14.133435458003078,14.142392499983544,15.13934095800505,15.13934095800505,15.13934095800505,15.13934095800505,15.13934095800505,15.13934095800505,15.13934095800505,15.13934095800505,1.0060872919857502,15.13934095800505,15.983052208001027,0.2677777777777778,-0.022222222222222223,1,0,0,[],091939,001,2024-05-04_14h59.53.363,creatingimages,2024.1.4,None,2024-05-04 14h59.59.770818 -0400,
"(-0.25, 0)",g,0.0,0,6,6,6,15.992220082989661,,15.983802500006277,15.992220082989661,16.989807125006337,16.989807125006337,16.989807125006337,16.989807125006337,16.989807125006337,16.989807125006337,16.989807125006337,16.989807125006337,1.0061860830173828,16.989807125006337,17.666076458001044,-0.23222222222222222,-0.017777777777777778,1,0,0,[],091939,001,2024-05-04_14h59.53.363,creatingimages,2024.1.4,None,2024-05-04 14h59.59.770818 -0400,
"(0.1875, -0.1875)",p,0.0,0,7,7,19,17.6757684579934,,17.66682199999923,17.6757684579934,18.673488875007024,18.673488875007024,18.673488875007024,18.673488875007024,18.673488875007024,18.673488875007024,18.673488875007024,18.673488875007024,1.0068662090052385,18.673488875007024,19.33288691699272,0.19666666666666666,-0.19111111111111112,1,0,0,[],091939,001,2024-05-04_14h59.53.363,creatingimages,2024.1.4,None,2024-05-04 14h59.59.770818 -0400,
"(-0.1875, 0.1875)",p,0.0,0,8,8,23,19.342657333007082,,19.333631249988684,19.342657333007082,20.340450041985605,20.340450041985605,20.340450041985605,20.340450041985605,20.340450041985605,20.340450041985605,20.340450041985605,20.340450041985605,1.0070347919827327,20.340450041985605,21.016405250004027,-0.15777777777777777,0.18222222222222223,1,0,0,[],091939,001,2024-05-04_14h59.53.363,creatingimages,2024.1.4,None,2024-05-04 14h59.59.770818 -0400,
"(-0.1875, -0.1875)",g,"(-0.25, 0)",0,9,9,13,21.025672707997728,,21.017146375001175,21.025672707997728,22.022146999981487,22.022146999981487,22.022146999981487,22.022146999981487,22.022146999981487,22.022146999981487,22.022146999981487,22.022146999981487,1.005184666981222,22.022146999981487,22.849826582998503,-0.16,-0.20777777777777778,1,0,0,[],091939,001,2024-05-04_14h59.53.363,creatingimages,2024.1.4,None,2024-05-04 14h59.59.770818 -0400,
"(-0.1875, 0.1875)",g,"(0.1875, 0.1875)",0,10,10,15,22.859451917000115,,22.850596417003544,22.859451917000115,23.856762916984735,23.856762916984735,23.856762916984735,23.856762916984735,23.856762916984735,23.856762916984735,23.856762916984735,23.856762916984735,1.006365499983076,23.856762916984735,24.8167305829993,-0.1811111111111111,0.14666666666666667,1,0,0,[],091939,001,2024-05-04_14h59.53.363,creatingimages,2024.1.4,None,2024-05-04 14h59.59.770818 -0400,
"(0, -0.25)",p,0.0,0,11,11,20,24.8261346250074,,24.817508207983337,24.8261346250074,25.823205916996812,25.823205916996812,25.823205916996812,25.823205916996812,25.823205916996812,25.823205916996812,25.823205916996812,25.823205916996812,1.005905416997848,25.823205916996812,26.449995167000452,-0.0077777777777777776,-0.2833333333333333,1,0,0,[],091939,001,2024-05-04_14h59.53.363,creatingimages,2024.1.4,None,2024-05-04 14h59.59.770818 -0400,
"(0.1875, 0.1875)",p,0.0,0,12,12,17,26.459624749986688,,26.45074858298176,26.459624749986688,27.456485250004334,27.456485250004334,27.456485250004334,27.456485250004334,27.456485250004334,27.456485250004334,27.456485250004334,27.456485250004334,1.005924834025791,27.456485250004334,28.116524207987823,0.16444444444444445,0.15222222222222223,1,0,0,[],091939,001,2024-05-04_14h59.53.363,creatingimages,2024.1.4,None,2024-05-04 14h59.59.770818 -0400,
"(-0.25, 0)",g,"(0.1875, -0.1875)",0,13,13,14,28.12624179199338,,28.11727562500164,28.12624179199338,29.12224291698658,29.12224291698658,29.12224291698658,29.12224291698658,29.12224291698658,29.12224291698658,29.12224291698658,29.12224291698658,1.0051625409978442,29.12224291698658,29.95018912499654,-0.24555555555555555,-0.03,1,0,0,[],091939,001,2024-05-04_14h59.53.363,creatingimages,2024.1.4,None,2024-05-04 14h59.59.770818 -0400,
"(0.1875, 0.1875)",g,"(0, -0.25)",0,14,14,9,29.959809124993626,,29.95094120799331,29.959809124993626,30.95700024999678,30.95700024999678,30.95700024999678,30.95700024999678,30.95700024999678,30.95700024999678,30.95700024999678,30.95700024999678,1.006252332997974,30.95700024999678,31.80023195798276,0.17666666666666667,0.14222222222222222,1,0,0,[],091939,001,2024-05-04_14h59.53.363,creatingimages,2024.1.4,None,2024-05-04 14h59.59.770818 -0400,
"(0, 0.25)",p,0.0,0,15,15,16,31.809764542005723,,31.800991708005313,31.809764542005723,32.80720354200457,32.80720354200457,32.80720354200457,32.80720354200457,32.80720354200457,32.80720354200457,32.80720354200457,32.80720354200457,1.0064044159953482,32.80720354200457,33.43426895799348,0.011111111111111112,0.21666666666666667,1,0,0,[],091939,001,2024-05-04_14h59.53.363,creatingimages,2024.1.4,None,2024-05-04 14h59.59.770818 -0400,
"(0, -0.25)",g,0.0,0,16,16,4,33.44340808299603,,33.43502904198249,33.44340808299603,34.44079595798394,34.44079595798394,34.44079595798394,34.44079595798394,34.44079595798394,34.44079595798394,34.44079595798394,34.44079595798394,1.005948999983957,34.44079595798394,35.09997654199833,-0.0022222222222222222,-0.25555555555555554,1,0,0,[],091939,001,2024-05-04_14h59.53.363,creatingimages,2024.1.4,None,2024-05-04 14h59.59.770818 -0400,
"(0, 0.25)",g,0.0,0,17,17,0,35.10989133300609,,35.10074720799457,35.10989133300609,36.10692508300417,36.10692508300417,36.10692508300417,36.10692508300417,36.10692508300417,36.10692508300417,36.10692508300417,36.10692508300417,1.0063743340142537,36.10692508300417,36.750639083009446,-0.008888888888888889,0.21555555555555556,1,0,0,[],091939,001,2024-05-04_14h59.53.363,creatingimages,2024.1.4,None,2024-05-04 14h59.59.770818 -0400,
"(-0.25, 0)",p,0.0,0,18,18,22,36.759765541995876,,36.75140612499672,36.759765541995876,37.75721691700164,37.75721691700164,37.75721691700164,37.75721691700164,37.75721691700164,37.75721691700164,37.75721691700164,37.75721691700164,1.006005584000377,37.75721691700164,38.45029366700328,-0.25222222222222224,-0.015555555555555555,1,0,0,[],091939,001,2024-05-04_14h59.53.363,creatingimages,2024.1.4,None,2024-05-04 14h59.59.770818 -0400,
"(0.1875, -0.1875)",g,0.0,0,19,19,3,38.4600312919938,,38.451050167001085,38.4600312919938,39.457824874989456,39.457824874989456,39.457824874989456,39.457824874989456,39.457824874989456,39.457824874989456,39.457824874989456,39.457824874989456,1.006971082999371,39.457824874989456,40.200434625003254,0.18888888888888888,-0.17,1,0,0,[],091939,001,2024-05-04_14h59.53.363,creatingimages,2024.1.4,None,2024-05-04 14h59.59.770818 -0400,
"(-0.1875, 0.1875)",g,0.0,0,20,20,7,40.21012062500813,,40.20120045798831,40.21012062500813,41.207460292003816,41.207460292003816,41.207460292003816,41.207460292003816,41.207460292003816,41.207460292003816,41.207460292003816,41.207460292003816,1.0064462089794688,41.207460292003816,42.01766891698935,-0.1688888888888889,0.16333333333333333,1,0,0,[],091939,001,2024-05-04_14h59.53.363,creatingimages,2024.1.4,None,2024-05-04 14h59.59.770818 -0400,
"(0.25, 0)",g,0.0,0,21,21,2,42.026631124987034,,42.01844916699338,42.026631124987034,43.02453329198761,43.02453329198761,43.02453329198761,43.02453329198761,43.02453329198761,43.02453329198761,43.02453329198761,43.02453329198761,1.0062793749966659,43.02453329198761,44.750614874996245,0.2288888888888889,-0.014444444444444444,1,0,0,[],091939,001,2024-05-04_14h59.53.363,creatingimages,2024.1.4,None,2024-05-04 14h59.59.770818 -0400,
"(0.1875, 0.1875)",g,0.0,0,22,22,1,44.760271457984345,,44.75138170798891,44.760271457984345,45.75797174999025,45.75797174999025,45.75797174999025,45.75797174999025,45.75797174999025,45.75797174999025,45.75797174999025,45.75797174999025,1.0067932500096504,45.75797174999025,46.60043649998261,0.21333333333333335,0.15222222222222223,1,0,0,[],091939,001,2024-05-04_14h59.53.363,creatingimages,2024.1.4,None,2024-05-04 14h59.59.770818 -0400,
"(-0.1875, -0.1875)",g,0.0,0,23,23,5,46.610360791994026,,46.601205457991455,46.610360791994026,47.60795695800334,47.60795695800334,47.60795695800334,47.60795695800334,47.60795695800334,47.60795695800334,47.60795695800334,47.60795695800334,1.0069507909938693,47.60795695800334,48.43437683299999,-0.17444444444444446,-0.19,1,0,0,[],091939,001,2024-05-04_14h59.53.363,creatingimages,2024.1.4,None,2024-05-04 14h59.59.770818 -0400,
