triangle_pos,triangle_color,pink_circle_pos,blue_circle_pos,red_circle_pos,test_trial_before_experiment.thisRepN,test_trial_before_experiment.thisTrialN,test_trial_before_experiment.thisN,test_trial_before_experiment.thisIndex,trials.thisRepN,trials.thisTrialN,trials.thisN,trials.thisIndex,thisRow.t,notes,Welcome_Page.started,textWelcomePage.started,key_resp.started,Welcome_Page.stopped,key_resp.keys,key_resp.rt,key_resp.duration,Test_Trial_routine_instructions.started,text.started,key_resp_3.started,Test_Trial_routine_instructions.stopped,key_resp_3.keys,key_resp_3.rt,key_resp_3.duration,test_trial.started,test_trial.stopped,Actual_Trial_Instructions.started,actual_trial_intructions.started,key_resp_4.started,Actual_Trial_Instructions.stopped,key_resp_4.keys,key_resp_4.rt,key_resp_4.duration,Real_Trials.started,Real_Trials.stopped,participant,session,date,expName,psychopyVersion,frameRate,expStart,
,,,,,,,,,,,,,,,0.06440925000060815,0.08195808301388752,1.9940407920075813,4.848213750010473,space,2.8501680830086116,None,,,,,,,,,,,,,,,,,,,229554,001,2024-05-11_18h53.15.435,creatingimagesNEW,2024.1.4,None,2024-05-11 18h53.24.328061 -0400,
,,,,,,,,,,,,,,,,,,,,,,4.848384125012672,4.87470095801109,5.84833495800558,6.324483708012849,space,0.4702370000013616,None,,,,,,,,,,,,229554,001,2024-05-11_18h53.15.435,creatingimagesNEW,2024.1.4,None,2024-05-11 18h53.24.328061 -0400,
"(0.1875, 0.1875)",g,0.0,0.0,,0,0,0,1,,,,,6.456937458002358,,,,,,,,,,,,,,,,6.438119542013737,7.4493930420139804,,,,,,,,,,229554,001,2024-05-11_18h53.15.435,creatingimagesNEW,2024.1.4,None,2024-05-11 18h53.24.328061 -0400,
"(0, 0.25)",g,0.0,0.0,,0,1,1,0,,,,,7.456415917011327,,,,,,,,,,,,,,,,7.449603542001569,8.319792667010915,,,,,,,,,,229554,001,2024-05-11_18h53.15.435,creatingimagesNEW,2024.1.4,None,2024-05-11 18h53.24.328061 -0400,
"(0, 0.25)",r,0.0,0.0,,0,2,2,9,,,,,8.327595083013875,,,,,,,,,,,,,,,,8.319981167005608,9.19168637500843,,,,,,,,,,229554,001,2024-05-11_18h53.15.435,creatingimagesNEW,2024.1.4,None,2024-05-11 18h53.24.328061 -0400,
"(0.1875, -0.1875)",r,0.0,0.0,,0,3,3,3,,,,,9.198305292011355,,,,,,,,,,,,,,,,9.191875750009785,10.26114950000192,,,,,,,,,,229554,001,2024-05-11_18h53.15.435,creatingimagesNEW,2024.1.4,None,2024-05-11 18h53.24.328061 -0400,
"(-0.25, 0)",r,0.0,0.0,,0,4,4,5,,,,,10.268130292010028,,,,,,,,,,,,,,,,10.261319833007292,11.130669917009072,,,,,,,,,,229554,001,2024-05-11_18h53.15.435,creatingimagesNEW,2024.1.4,None,2024-05-11 18h53.24.328061 -0400,
"(-0.25, 0)",g,0.0,"(0.1875, 0.1875)",,0,5,5,14,,,,,11.137359708009171,,,,,,,,,,,,,,,,11.13083412501146,12.099875292013166,,,,,,,,,,229554,001,2024-05-11_18h53.15.435,creatingimagesNEW,2024.1.4,None,2024-05-11 18h53.24.328061 -0400,
"(-0.1875, 0.1875)",b,0.0,0.0,,0,6,6,16,,,,,12.106934667011956,,,,,,,,,,,,,,,,12.100073375011561,13.06980733301316,,,,,,,,,,229554,001,2024-05-11_18h53.15.435,creatingimagesNEW,2024.1.4,None,2024-05-11 18h53.24.328061 -0400,
"(0.1875, 0.1875)",b,0.0,"(-0.1875, -0.1875)",,0,7,7,19,,,,,13.076669458008837,,,,,,,,,,,,,,,,13.070038375008153,14.044798125003581,,,,,,,,,,229554,001,2024-05-11_18h53.15.435,creatingimagesNEW,2024.1.4,None,2024-05-11 18h53.24.328061 -0400,
"(0.1875, -0.1875)",g,0.0,"(0.25, 0)",,0,8,8,12,,,,,14.052132708005956,,,,,,,,,,,,,,,,14.044993333009188,15.115087917001802,,,,,,,,,,229554,001,2024-05-11_18h53.15.435,creatingimagesNEW,2024.1.4,None,2024-05-11 18h53.24.328061 -0400,
"(0, 0.25)",b,0.0,"(0, -0.25)",,0,9,9,18,,,,,15.122635250008898,,,,,,,,,,,,,,,,15.115301958008786,15.985273625003174,,,,,,,,,,229554,001,2024-05-11_18h53.15.435,creatingimagesNEW,2024.1.4,None,2024-05-11 18h53.24.328061 -0400,
"(-0.25, 0)",g,"(0.25, 0)",0.0,,0,10,10,8,,,,,15.991867667005863,,,,,,,,,,,,,,,,15.98543954201159,17.055440083000576,,,,,,,,,,229554,001,2024-05-11_18h53.15.435,creatingimagesNEW,2024.1.4,None,2024-05-11 18h53.24.328061 -0400,
"(0.25, 0)",g,0.0,0.0,,0,11,11,2,,,,,17.06229958300537,,,,,,,,,,,,,,,,17.05563266700483,17.92460020800354,,,,,,,,,,229554,001,2024-05-11_18h53.15.435,creatingimagesNEW,2024.1.4,None,2024-05-11 18h53.24.328061 -0400,
"(0.25, 0)",g,"(-0.1875, -0.1875)",0.0,,0,12,12,6,,,,,17.933130458011874,,,,,,,,,,,,,,,,17.92477612500079,18.900272500002757,,,,,,,,,,229554,001,2024-05-11_18h53.15.435,creatingimagesNEW,2024.1.4,None,2024-05-11 18h53.24.328061 -0400,
"(-0.25, 0)",b,0.0,0.0,,0,13,13,17,,,,,18.906802250014152,,,,,,,,,,,,,,,,18.900442000012845,19.77318658301374,,,,,,,,,,229554,001,2024-05-11_18h53.15.435,creatingimagesNEW,2024.1.4,None,2024-05-11 18h53.24.328061 -0400,
"(0.25, 0)",b,0.0,0.0,,0,14,14,15,,,,,19.782068792002974,,,,,,,,,,,,,,,,19.773352042000624,20.548793458001455,,,,,,,,,,229554,001,2024-05-11_18h53.15.435,creatingimagesNEW,2024.1.4,None,2024-05-11 18h53.24.328061 -0400,
"(0.1875, 0.1875)",r,0.0,0.0,,0,15,15,10,,,,,20.555947458007722,,,,,,,,,,,,,,,,20.54901937500108,21.523871250014054,,,,,,,,,,229554,001,2024-05-11_18h53.15.435,creatingimagesNEW,2024.1.4,None,2024-05-11 18h53.24.328061 -0400,
"(0.25, 0)",r,0.0,0.0,,0,16,16,11,,,,,21.53061416700075,,,,,,,,,,,,,,,,21.52404075000959,22.29292591700505,,,,,,,,,,229554,001,2024-05-11_18h53.15.435,creatingimagesNEW,2024.1.4,None,2024-05-11 18h53.24.328061 -0400,
"(-0.1875, -0.1875)",g,0.0,"(-0.1875, 0.1875) ",,0,17,17,13,,,,,22.29958279200946,,,,,,,,,,,,,,,,22.29311400000006,23.063169500004733,,,,,,,,,,229554,001,2024-05-11_18h53.15.435,creatingimagesNEW,2024.1.4,None,2024-05-11 18h53.24.328061 -0400,
"(-0.1875, -0.1875)",r,0.0,0.0,,0,18,18,4,,,,,23.069804792001378,,,,,,,,,,,,,,,,23.06335150000814,24.13233150000451,,,,,,,,,,229554,001,2024-05-11_18h53.15.435,creatingimagesNEW,2024.1.4,None,2024-05-11 18h53.24.328061 -0400,
"(0.25, 0)",b,0.0,"(0.1875, -0.1875)",,0,19,19,20,,,,,24.139313208012027,,,,,,,,,,,,,,,,24.132514708006056,25.302962417001254,,,,,,,,,,229554,001,2024-05-11_18h53.15.435,creatingimagesNEW,2024.1.4,None,2024-05-11 18h53.24.328061 -0400,
"(-0.1875, 0.1875)",g,"(-0.25, 0)",0.0,,0,20,20,7,,,,,25.310058417002438,,,,,,,,,,,,,,,,25.30314845801331,26.172228875002475,,,,,,,,,,229554,001,2024-05-11_18h53.15.435,creatingimagesNEW,2024.1.4,None,2024-05-11 18h53.24.328061 -0400,
"(0.25, 0)",g,0.0,0.0,,1,0,21,2,,,,,26.1789329170133,,,,,,,,,,,,,,,,26.172394583001733,27.04114070801006,,,,,,,,,,229554,001,2024-05-11_18h53.15.435,creatingimagesNEW,2024.1.4,None,2024-05-11 18h53.24.328061 -0400,
"(0.1875, -0.1875)",g,0.0,"(0.25, 0)",,1,1,22,12,,,,,27.04787833300361,,,,,,,,,,,,,,,,27.041309457999887,28.212526542003616,,,,,,,,,,229554,001,2024-05-11_18h53.15.435,creatingimagesNEW,2024.1.4,None,2024-05-11 18h53.24.328061 -0400,
"(-0.1875, 0.1875)",g,"(-0.25, 0)",0.0,,1,2,23,7,,,,,28.219440542001394,,,,,,,,,,,,,,,,28.21268979200977,29.182266792005976,,,,,,,,,,229554,001,2024-05-11_18h53.15.435,creatingimagesNEW,2024.1.4,None,2024-05-11 18h53.24.328061 -0400,
"(-0.25, 0)",b,0.0,0.0,,1,3,24,17,,,,,29.189137000008486,,,,,,,,,,,,,,,,29.18248545800452,30.153257292011403,,,,,,,,,,229554,001,2024-05-11_18h53.15.435,creatingimagesNEW,2024.1.4,None,2024-05-11 18h53.24.328061 -0400,
"(0.25, 0)",b,0.0,0.0,,1,4,25,15,,,,,30.160759833001066,,,,,,,,,,,,,,,,30.153453750011977,31.223750208009733,,,,,,,,,,229554,001,2024-05-11_18h53.15.435,creatingimagesNEW,2024.1.4,None,2024-05-11 18h53.24.328061 -0400,
"(-0.25, 0)",r,0.0,0.0,,1,5,26,5,,,,,31.231191750004655,,,,,,,,,,,,,,,,31.22398358301143,32.39387470801012,,,,,,,,,,229554,001,2024-05-11_18h53.15.435,creatingimagesNEW,2024.1.4,None,2024-05-11 18h53.24.328061 -0400,
"(-0.1875, 0.1875)",b,0.0,0.0,,1,6,27,16,,,,,32.40063900001405,,,,,,,,,,,,,,,,32.394050958013395,33.26473983300093,,,,,,,,,,229554,001,2024-05-11_18h53.15.435,creatingimagesNEW,2024.1.4,None,2024-05-11 18h53.24.328061 -0400,
"(-0.1875, -0.1875)",g,0.0,"(-0.1875, 0.1875) ",,1,7,28,13,,,,,33.271728042003815,,,,,,,,,,,,,,,,33.26494458300294,34.339963542006444,,,,,,,,,,229554,001,2024-05-11_18h53.15.435,creatingimagesNEW,2024.1.4,None,2024-05-11 18h53.24.328061 -0400,
"(-0.25, 0)",g,0.0,"(0.1875, 0.1875)",,1,8,29,14,,,,,34.34666270800517,,,,,,,,,,,,,,,,34.34016087501368,35.21022320800694,,,,,,,,,,229554,001,2024-05-11_18h53.15.435,creatingimagesNEW,2024.1.4,None,2024-05-11 18h53.24.328061 -0400,
"(0.1875, 0.1875)",g,0.0,0.0,,1,9,30,1,,,,,35.2170025420055,,,,,,,,,,,,,,,,35.210431625004276,35.97962883301079,,,,,,,,,,229554,001,2024-05-11_18h53.15.435,creatingimagesNEW,2024.1.4,None,2024-05-11 18h53.24.328061 -0400,
"(-0.25, 0)",g,"(0.25, 0)",0.0,,1,10,31,8,,,,,35.988626583013684,,,,,,,,,,,,,,,,35.98001245800697,37.052208667009836,,,,,,,,,,229554,001,2024-05-11_18h53.15.435,creatingimagesNEW,2024.1.4,None,2024-05-11 18h53.24.328061 -0400,
"(0.25, 0)",g,"(-0.1875, -0.1875)",0.0,,1,11,32,6,,,,,37.05887283300399,,,,,,,,,,,,,,,,37.05237941700034,38.021402833008324,,,,,,,,,,229554,001,2024-05-11_18h53.15.435,creatingimagesNEW,2024.1.4,None,2024-05-11 18h53.24.328061 -0400,
"(0.25, 0)",r,0.0,0.0,,1,12,33,11,,,,,38.02792729200155,,,,,,,,,,,,,,,,38.02157375001116,38.99027245800244,,,,,,,,,,229554,001,2024-05-11_18h53.15.435,creatingimagesNEW,2024.1.4,None,2024-05-11 18h53.24.328061 -0400,
"(-0.1875, -0.1875)",r,0.0,0.0,,1,13,34,4,,,,,38.99715358301182,,,,,,,,,,,,,,,,38.99048387500807,39.85951916700287,,,,,,,,,,229554,001,2024-05-11_18h53.15.435,creatingimagesNEW,2024.1.4,None,2024-05-11 18h53.24.328061 -0400,
"(0, 0.25)",b,0.0,"(0, -0.25)",,1,14,35,18,,,,,39.86758266700781,,,,,,,,,,,,,,,,39.85975183300616,40.629723208010546,,,,,,,,,,229554,001,2024-05-11_18h53.15.435,creatingimagesNEW,2024.1.4,None,2024-05-11 18h53.24.328061 -0400,
"(0, 0.25)",r,0.0,0.0,,1,15,36,9,,,,,40.63630925001053,,,,,,,,,,,,,,,,40.62990654200257,41.90022504200169,,,,,,,,,,229554,001,2024-05-11_18h53.15.435,creatingimagesNEW,2024.1.4,None,2024-05-11 18h53.24.328061 -0400,
"(0.1875, -0.1875)",r,0.0,0.0,,1,16,37,3,,,,,41.90753120800946,,,,,,,,,,,,,,,,41.900419125013286,42.970352875010576,,,,,,,,,,229554,001,2024-05-11_18h53.15.435,creatingimagesNEW,2024.1.4,None,2024-05-11 18h53.24.328061 -0400,
"(0.1875, 0.1875)",r,0.0,0.0,,1,17,38,10,,,,,42.97697362500185,,,,,,,,,,,,,,,,42.97055929200724,43.73921079200227,,,,,,,,,,229554,001,2024-05-11_18h53.15.435,creatingimagesNEW,2024.1.4,None,2024-05-11 18h53.24.328061 -0400,
"(0.25, 0)",b,0.0,"(0.1875, -0.1875)",,1,18,39,20,,,,,43.74587579201034,,,,,,,,,,,,,,,,43.7394003750087,44.90961433300981,,,,,,,,,,229554,001,2024-05-11_18h53.15.435,creatingimagesNEW,2024.1.4,None,2024-05-11 18h53.24.328061 -0400,
"(0, 0.25)",g,0.0,0.0,,1,19,40,0,,,,,44.91636312501214,,,,,,,,,,,,,,,,44.909779833003995,45.78109800000675,,,,,,,,,,229554,001,2024-05-11_18h53.15.435,creatingimagesNEW,2024.1.4,None,2024-05-11 18h53.24.328061 -0400,
"(0.1875, 0.1875)",b,0.0,"(-0.1875, -0.1875)",,1,20,41,19,,,,,45.787808583001606,,,,,,,,,,,,,,,,45.78126654200605,47.532716375004384,,,,,,,,,,229554,001,2024-05-11_18h53.15.435,creatingimagesNEW,2024.1.4,None,2024-05-11 18h53.24.328061 -0400,
"(0, 0.25)",g,0.0,0.0,,2,0,42,0,,,,,47.54150483300327,,,,,,,,,,,,,,,,47.53296033300285,48.90475575000164,,,,,,,,,,229554,001,2024-05-11_18h53.15.435,creatingimagesNEW,2024.1.4,None,2024-05-11 18h53.24.328061 -0400,
"(0.1875, 0.1875)",g,0.0,0.0,,2,1,43,1,,,,,48.91194920800626,,,,,,,,,,,,,,,,48.904959458013764,50.07489562500268,,,,,,,,,,229554,001,2024-05-11_18h53.15.435,creatingimagesNEW,2024.1.4,None,2024-05-11 18h53.24.328061 -0400,
"(-0.25, 0)",g,0.0,"(0.1875, 0.1875)",,2,2,44,14,,,,,50.0819273750094,,,,,,,,,,,,,,,,50.07506358300452,51.044776292008464,,,,,,,,,,229554,001,2024-05-11_18h53.15.435,creatingimagesNEW,2024.1.4,None,2024-05-11 18h53.24.328061 -0400,
"(0.1875, -0.1875)",r,0.0,0.0,,2,3,45,3,,,,,51.051551583004766,,,,,,,,,,,,,,,,51.04498716701346,51.91387550000218,,,,,,,,,,229554,001,2024-05-11_18h53.15.435,creatingimagesNEW,2024.1.4,None,2024-05-11 18h53.24.328061 -0400,
"(-0.1875, 0.1875)",b,0.0,0.0,,2,4,46,16,,,,,51.92056875000708,,,,,,,,,,,,,,,,51.91404041700298,52.8839852920064,,,,,,,,,,229554,001,2024-05-11_18h53.15.435,creatingimagesNEW,2024.1.4,None,2024-05-11 18h53.24.328061 -0400,
"(0.1875, 0.1875)",b,0.0,"(-0.1875, -0.1875)",,2,5,47,19,,,,,52.890825083013624,,,,,,,,,,,,,,,,52.884160208006506,53.9529674170044,,,,,,,,,,229554,001,2024-05-11_18h53.15.435,creatingimagesNEW,2024.1.4,None,2024-05-11 18h53.24.328061 -0400,
"(0.25, 0)",b,0.0,"(0.1875, -0.1875)",,2,6,48,20,,,,,53.960499875000096,,,,,,,,,,,,,,,,53.95315904200834,54.92338566700346,,,,,,,,,,229554,001,2024-05-11_18h53.15.435,creatingimagesNEW,2024.1.4,None,2024-05-11 18h53.24.328061 -0400,
"(-0.1875, 0.1875)",g,"(-0.25, 0)",0.0,,2,7,49,7,,,,,54.93006241701369,,,,,,,,,,,,,,,,54.923587500001304,55.99303925001004,,,,,,,,,,229554,001,2024-05-11_18h53.15.435,creatingimagesNEW,2024.1.4,None,2024-05-11 18h53.24.328061 -0400,
"(0.25, 0)",b,0.0,0.0,,2,8,50,15,,,,,55.99973166700511,,,,,,,,,,,,,,,,55.993260833012755,56.965730792013346,,,,,,,,,,229554,001,2024-05-11_18h53.15.435,creatingimagesNEW,2024.1.4,None,2024-05-11 18h53.24.328061 -0400,
"(0.25, 0)",g,0.0,0.0,,2,9,51,2,,,,,56.97271116700722,,,,,,,,,,,,,,,,56.965942042006645,58.13625320800929,,,,,,,,,,229554,001,2024-05-11_18h53.15.435,creatingimagesNEW,2024.1.4,None,2024-05-11 18h53.24.328061 -0400,
"(-0.25, 0)",r,0.0,0.0,,2,10,52,5,,,,,58.14331966701138,,,,,,,,,,,,,,,,58.13646887500363,59.005779833009,,,,,,,,,,229554,001,2024-05-11_18h53.15.435,creatingimagesNEW,2024.1.4,None,2024-05-11 18h53.24.328061 -0400,
"(-0.1875, -0.1875)",r,0.0,0.0,,2,11,53,4,,,,,59.01232050001272,,,,,,,,,,,,,,,,59.005979000008665,60.07496137500857,,,,,,,,,,229554,001,2024-05-11_18h53.15.435,creatingimagesNEW,2024.1.4,None,2024-05-11 18h53.24.328061 -0400,
"(0, 0.25)",r,0.0,0.0,,2,12,54,9,,,,,60.08187820800231,,,,,,,,,,,,,,,,60.075125333009055,60.944368333002785,,,,,,,,,,229554,001,2024-05-11_18h53.15.435,creatingimagesNEW,2024.1.4,None,2024-05-11 18h53.24.328061 -0400,
"(-0.25, 0)",b,0.0,0.0,,2,13,55,17,,,,,60.951345792011125,,,,,,,,,,,,,,,,60.944550167012494,61.813646250011516,,,,,,,,,,229554,001,2024-05-11_18h53.15.435,creatingimagesNEW,2024.1.4,None,2024-05-11 18h53.24.328061 -0400,
"(0.25, 0)",r,0.0,0.0,,2,14,56,11,,,,,61.82018529200286,,,,,,,,,,,,,,,,61.813808500010055,62.78261679201387,,,,,,,,,,229554,001,2024-05-11_18h53.15.435,creatingimagesNEW,2024.1.4,None,2024-05-11 18h53.24.328061 -0400,
"(0.25, 0)",g,"(-0.1875, -0.1875)",0.0,,2,15,57,6,,,,,62.78927291701257,,,,,,,,,,,,,,,,62.78281562500342,63.7563466670108,,,,,,,,,,229554,001,2024-05-11_18h53.15.435,creatingimagesNEW,2024.1.4,None,2024-05-11 18h53.24.328061 -0400,
"(-0.1875, -0.1875)",g,0.0,"(-0.1875, 0.1875) ",,2,16,58,13,,,,,63.766484083011164,,,,,,,,,,,,,,,,63.75683654200111,64.73187691700878,,,,,,,,,,229554,001,2024-05-11_18h53.15.435,creatingimagesNEW,2024.1.4,None,2024-05-11 18h53.24.328061 -0400,
"(0, 0.25)",b,0.0,"(0, -0.25)",,2,17,59,18,,,,,64.73917620800785,,,,,,,,,,,,,,,,64.7321071250044,65.50147841700527,,,,,,,,,,229554,001,2024-05-11_18h53.15.435,creatingimagesNEW,2024.1.4,None,2024-05-11 18h53.24.328061 -0400,
"(0.1875, 0.1875)",r,0.0,0.0,,2,18,60,10,,,,,65.50896291701065,,,,,,,,,,,,,,,,65.5017107080057,66.37361720800982,,,,,,,,,,229554,001,2024-05-11_18h53.15.435,creatingimagesNEW,2024.1.4,None,2024-05-11 18h53.24.328061 -0400,
"(-0.25, 0)",g,"(0.25, 0)",0.0,,2,19,61,8,,,,,66.38040887500392,,,,,,,,,,,,,,,,66.37381333300436,67.24285245800274,,,,,,,,,,229554,001,2024-05-11_18h53.15.435,creatingimagesNEW,2024.1.4,None,2024-05-11 18h53.24.328061 -0400,
"(0.1875, -0.1875)",g,0.0,"(0.25, 0)",,2,20,62,12,,,,,67.24949591699988,,,,,,,,,,,,,,,,67.24304095801199,68.31176362500992,,,,,,,,,,229554,001,2024-05-11_18h53.15.435,creatingimagesNEW,2024.1.4,None,2024-05-11 18h53.24.328061 -0400,
,,,,,,,,,,,,,,,,,,,,,,,,,,,,,,,68.31187900000077,68.33563391701318,69.30884904200502,69.5493377080129,space,0.2301532919955207,None,,,229554,001,2024-05-11_18h53.15.435,creatingimagesNEW,2024.1.4,None,2024-05-11 18h53.24.328061 -0400,
"(0, 0.25)",b,,"(-0.1875, -0.1875)",0.0,,,,,0,0,0,48,69.69173120800406,,,,,,,,,,,,,,,,,,,,,,,,,69.68076641700463,70.5548913750099,229554,001,2024-05-11_18h53.15.435,creatingimagesNEW,2024.1.4,None,2024-05-11 18h53.24.328061 -0400,
"(0.1875, 0.1875)",b,,0.0,0.0,,,,,0,1,1,41,70.56192925000505,,,,,,,,,,,,,,,,,,,,,,,,,70.5551160830073,71.52413050000905,229554,001,2024-05-11_18h53.15.435,creatingimagesNEW,2024.1.4,None,2024-05-11 18h53.24.328061 -0400,
"(0, -0.25)",b,,0.0,0.0,,,,,0,2,2,44,71.530881417013,,,,,,,,,,,,,,,,,,,,,,,,,71.52431500000239,72.59508254200045,229554,001,2024-05-11_18h53.15.435,creatingimagesNEW,2024.1.4,None,2024-05-11 18h53.24.328061 -0400,
"(0, 0.25)",g,,0.0,"(-0.1875, -0.1875)",,,,,0,3,3,8,72.60203220800031,,,,,,,,,,,,,,,,,,,,,,,,,72.59523925000394,73.56599375000224,229554,001,2024-05-11_18h53.15.435,creatingimagesNEW,2024.1.4,None,2024-05-11 18h53.24.328061 -0400,
"(-0.1875, -0.1875)",b,,"(0, 0.25)",0.0,,,,,0,4,4,53,73.5746212080121,,,,,,,,,,,,,,,,,,,,,,,,,73.56619358301396,74.73805858301057,229554,001,2024-05-11_18h53.15.435,creatingimagesNEW,2024.1.4,None,2024-05-11 18h53.24.328061 -0400,
"(0.1875, -0.1875)",g,,"(-0.25, 0)",0.0,,,,,0,5,5,35,74.7460069170047,,,,,,,,,,,,,,,,,,,,,,,,,74.73825466701237,76.21359841700178,229554,001,2024-05-11_18h53.15.435,creatingimagesNEW,2024.1.4,None,2024-05-11 18h53.24.328061 -0400,
"(0, 0.25)",r,,0.0,0.0,,,,,0,6,6,16,76.23033220801153,,,,,,,,,,,,,,,,,,,,,,,,,76.21606329201313,77.19552754200413,229554,001,2024-05-11_18h53.15.435,creatingimagesNEW,2024.1.4,None,2024-05-11 18h53.24.328061 -0400,
"(-0.1875, -0.1875)",g,,"(0, 0.25)",0.0,,,,,0,7,7,37,77.20238754201273,,,,,,,,,,,,,,,,,,,,,,,,,77.19571037500282,78.26450475001184,229554,001,2024-05-11_18h53.15.435,creatingimagesNEW,2024.1.4,None,2024-05-11 18h53.24.328061 -0400,
"(-0.25, 0)",r,,0.0,"(0.1875, -0.1875)",,,,,0,8,8,30,78.27127979201032,,,,,,,,,,,,,,,,,,,,,,,,,78.26466504200653,79.23255570800393,229554,001,2024-05-11_18h53.15.435,creatingimagesNEW,2024.1.4,None,2024-05-11 18h53.24.328061 -0400,
"(-0.1875, 0.1875)",g,,0.0,"(0.25, 0)",,,,,0,9,9,15,79.23900791699998,,,,,,,,,,,,,,,,,,,,,,,,,79.23270404200593,80.80231787500088,229554,001,2024-05-11_18h53.15.435,creatingimagesNEW,2024.1.4,None,2024-05-11 18h53.24.328061 -0400,
"(0, -0.25)",g,,0.0,0.0,,,,,0,10,10,4,80.81151445800788,,,,,,,,,,,,,,,,,,,,,,,,,80.80246854200959,81.8738361249998,229554,001,2024-05-11_18h53.15.435,creatingimagesNEW,2024.1.4,None,2024-05-11 18h53.24.328061 -0400,
"(-0.25, 0)",r,,0.0,0.0,,,,,0,11,11,22,81.8803217500099,,,,,,,,,,,,,,,,,,,,,,,,,81.87399325000297,83.04263133300992,229554,001,2024-05-11_18h53.15.435,creatingimagesNEW,2024.1.4,None,2024-05-11 18h53.24.328061 -0400,
,,,,,,,,,,,,,83.0494010830007,,,,,,,,,,,,,,,,,,,,,,,,,83.04278175000218,,,,,,,,,
