triangle_pos,triangle_color,pink_circle_pos,red_circle_pos,blue_circle_pos,test_trial_before_experiment.thisRepN,test_trial_before_experiment.thisTrialN,test_trial_before_experiment.thisN,test_trial_before_experiment.thisIndex,trials.thisRepN,trials.thisTrialN,trials.thisN,trials.thisIndex,thisRow.t,notes,Welcome_Page.started,textWelcomePage.started,key_resp.started,Welcome_Page.stopped,key_resp.keys,key_resp.rt,key_resp.duration,Test_Trial_routine_instructions.started,text.started,key_resp_3.started,Test_Trial_routine_instructions.stopped,key_resp_3.keys,key_resp_3.rt,key_resp_3.duration,test_trial.started,test_trial.stopped,Actual_Trial_Instructions.started,actual_trial_intructions.started,key_resp_4.started,Actual_Trial_Instructions.stopped,key_resp_4.keys,key_resp_4.rt,key_resp_4.duration,code_attempt.started,code_attempt.stopped,End_Routine.started,End_Text.started,key_resp_2.started,End_Routine.stopped,key_resp_2.keys,key_resp_2.rt,key_resp_2.duration,participant,session,date,expName,psychopyVersion,frameRate,expStart,
,,,,,,,,,,,,,,,0.06315266701858491,0.08303825004259124,1.9924689590116031,20.255088459001854,space,18.25784062501043,None,,,,,,,,,,,,,,,,,,,,,,,,,,281187,001,2024-05-08_20h51.42.724,creatingimagesNEW,2024.1.4,None,2024-05-08 20h51.52.402058 -0400,
,,,,,,,,,,,,,,,,,,,,,,20.25523962499574,20.285381334018894,21.253793167008553,22.228882291994523,space,0.9721667919657193,None,,,,,,,,,,,,,,,,,,,281187,001,2024-05-08_20h51.42.724,creatingimagesNEW,2024.1.4,None,2024-05-08 20h51.52.402058 -0400,
"(-0.25, 0)",g,"(0.25, 0)",,,0,0,0,8,,,,,22.387864249991253,,,,,,,,,,,,,,,,22.34603979199892,23.88193716702517,,,,,,,,,,,,,,,,,281187,001,2024-05-08_20h51.42.724,creatingimagesNEW,2024.1.4,None,2024-05-08 20h51.52.402058 -0400,
"(0.1875, -0.1875)",p,0.0,,,0,1,1,3,,,,,23.892374709015712,,,,,,,,,,,,,,,,23.882121417031158,24.954940041992813,,,,,,,,,,,,,,,,,281187,001,2024-05-08_20h51.42.724,creatingimagesNEW,2024.1.4,None,2024-05-08 20h51.52.402058 -0400,
"(-0.1875, 0.1875)",g,"(-0.25, 0)",,,0,2,2,7,,,,,24.962996750022285,,,,,,,,,,,,,,,,24.955097416997887,25.925087000010535,,,,,,,,,,,,,,,,,281187,001,2024-05-08_20h51.42.724,creatingimagesNEW,2024.1.4,None,2024-05-08 20h51.52.402058 -0400,
"(-0.25, 0)",p,0.0,,,0,3,3,5,,,,,25.931854750029743,,,,,,,,,,,,,,,,25.925241042044945,26.89347758400254,,,,,,,,,,,,,,,,,281187,001,2024-05-08_20h51.42.724,creatingimagesNEW,2024.1.4,None,2024-05-08 20h51.52.402058 -0400,
"(0.25, 0)",g,0.0,,,0,4,4,2,,,,,26.89999633404659,,,,,,,,,,,,,,,,26.89363729202887,27.862013792037033,,,,,,,,,,,,,,,,,281187,001,2024-05-08_20h51.42.724,creatingimagesNEW,2024.1.4,None,2024-05-08 20h51.52.402058 -0400,
"(-0.1875, -0.1875)",p,0.0,,,0,5,5,4,,,,,27.86874137504492,,,,,,,,,,,,,,,,27.86218216700945,29.444696500024293,,,,,,,,,,,,,,,,,281187,001,2024-05-08_20h51.42.724,creatingimagesNEW,2024.1.4,None,2024-05-08 20h51.52.402058 -0400,
"(0.1875, 0.1875)",g,0.0,,,0,6,6,1,,,,,29.45156641700305,,,,,,,,,,,,,,,,29.44485650002025,30.41327020904282,,,,,,,,,,,,,,,,,281187,001,2024-05-08_20h51.42.724,creatingimagesNEW,2024.1.4,None,2024-05-08 20h51.52.402058 -0400,
"(0.25, 0)",g,"(-0.1875, -0.1875)",,,0,7,7,6,,,,,30.41982958401786,,,,,,,,,,,,,,,,30.41342325002188,31.48165166703984,,,,,,,,,,,,,,,,,281187,001,2024-05-08_20h51.42.724,creatingimagesNEW,2024.1.4,None,2024-05-08 20h51.52.402058 -0400,
"(0, 0.25)",g,0.0,,,0,8,8,0,,,,,31.488406541990116,,,,,,,,,,,,,,,,31.481810334022157,32.65397074999055,,,,,,,,,,,,,,,,,281187,001,2024-05-08_20h51.42.724,creatingimagesNEW,2024.1.4,None,2024-05-08 20h51.52.402058 -0400,
"(-0.1875, -0.1875)",p,0.0,,,1,0,9,4,,,,,32.66120579204289,,,,,,,,,,,,,,,,32.6542351670214,33.62360250001075,,,,,,,,,,,,,,,,,281187,001,2024-05-08_20h51.42.724,creatingimagesNEW,2024.1.4,None,2024-05-08 20h51.52.402058 -0400,
"(0.1875, 0.1875)",g,0.0,,,1,1,10,1,,,,,33.62998783402145,,,,,,,,,,,,,,,,33.623757209046744,34.69283387501491,,,,,,,,,,,,,,,,,281187,001,2024-05-08_20h51.42.724,creatingimagesNEW,2024.1.4,None,2024-05-08 20h51.52.402058 -0400,
"(0.25, 0)",g,0.0,,,1,2,11,2,,,,,34.699490208993666,,,,,,,,,,,,,,,,34.69299479201436,35.76141600002302,,,,,,,,,,,,,,,,,281187,001,2024-05-08_20h51.42.724,creatingimagesNEW,2024.1.4,None,2024-05-08 20h51.52.402058 -0400,
"(0.25, 0)",g,"(-0.1875, -0.1875)",,,1,3,12,6,,,,,35.76794129202608,,,,,,,,,,,,,,,,35.76158425002359,36.83003329200437,,,,,,,,,,,,,,,,,281187,001,2024-05-08_20h51.42.724,creatingimagesNEW,2024.1.4,None,2024-05-08 20h51.52.402058 -0400,
"(-0.1875, 0.1875)",g,"(-0.25, 0)",,,1,4,13,7,,,,,36.837025209038984,,,,,,,,,,,,,,,,36.83019425004022,37.99892770900624,,,,,,,,,,,,,,,,,281187,001,2024-05-08_20h51.42.724,creatingimagesNEW,2024.1.4,None,2024-05-08 20h51.52.402058 -0400,
"(0, 0.25)",g,0.0,,,1,5,14,0,,,,,38.005555500043556,,,,,,,,,,,,,,,,37.99908887501806,38.967169625044335,,,,,,,,,,,,,,,,,281187,001,2024-05-08_20h51.42.724,creatingimagesNEW,2024.1.4,None,2024-05-08 20h51.52.402058 -0400,
"(0.1875, -0.1875)",p,0.0,,,1,6,15,3,,,,,38.97347212501336,,,,,,,,,,,,,,,,38.96732537500793,40.03529862500727,,,,,,,,,,,,,,,,,281187,001,2024-05-08_20h51.42.724,creatingimagesNEW,2024.1.4,None,2024-05-08 20h51.52.402058 -0400,
"(-0.25, 0)",p,0.0,,,1,7,16,5,,,,,40.04236754204612,,,,,,,,,,,,,,,,40.03551104199141,41.00421829201514,,,,,,,,,,,,,,,,,281187,001,2024-05-08_20h51.42.724,creatingimagesNEW,2024.1.4,None,2024-05-08 20h51.52.402058 -0400,
"(-0.25, 0)",g,"(0.25, 0)",,,1,8,17,8,,,,,41.0111808340298,,,,,,,,,,,,,,,,41.00437675003195,42.27455100003863,,,,,,,,,,,,,,,,,281187,001,2024-05-08_20h51.42.724,creatingimagesNEW,2024.1.4,None,2024-05-08 20h51.52.402058 -0400,
"(-0.1875, -0.1875)",p,0.0,,,2,0,18,4,,,,,42.28113175003091,,,,,,,,,,,,,,,,42.2747013749904,43.34334487502929,,,,,,,,,,,,,,,,,281187,001,2024-05-08_20h51.42.724,creatingimagesNEW,2024.1.4,None,2024-05-08 20h51.52.402058 -0400,
"(0.1875, -0.1875)",p,0.0,,,2,1,19,3,,,,,43.35009424999589,,,,,,,,,,,,,,,,43.34350875002565,44.41208929201821,,,,,,,,,,,,,,,,,281187,001,2024-05-08_20h51.42.724,creatingimagesNEW,2024.1.4,None,2024-05-08 20h51.52.402058 -0400,
"(0.25, 0)",g,0.0,,,2,2,20,2,,,,,44.41848691704217,,,,,,,,,,,,,,,,44.41224900004454,45.58080454199808,,,,,,,,,,,,,,,,,281187,001,2024-05-08_20h51.42.724,creatingimagesNEW,2024.1.4,None,2024-05-08 20h51.52.402058 -0400,
"(0.1875, 0.1875)",g,0.0,,,2,3,21,1,,,,,45.58744716702495,,,,,,,,,,,,,,,,45.58096629200736,46.54949649999617,,,,,,,,,,,,,,,,,281187,001,2024-05-08_20h51.42.724,creatingimagesNEW,2024.1.4,None,2024-05-08 20h51.52.402058 -0400,
"(0.25, 0)",g,"(-0.1875, -0.1875)",,,2,4,22,6,,,,,46.55576362501597,,,,,,,,,,,,,,,,46.54964933404699,47.717736584017985,,,,,,,,,,,,,,,,,281187,001,2024-05-08_20h51.42.724,creatingimagesNEW,2024.1.4,None,2024-05-08 20h51.52.402058 -0400,
"(-0.1875, 0.1875)",g,"(-0.25, 0)",,,2,5,23,7,,,,,47.724465125007555,,,,,,,,,,,,,,,,47.71788870904129,48.786332999996375,,,,,,,,,,,,,,,,,281187,001,2024-05-08_20h51.42.724,creatingimagesNEW,2024.1.4,None,2024-05-08 20h51.52.402058 -0400,
"(-0.25, 0)",p,0.0,,,2,6,24,5,,,,,48.7933130839956,,,,,,,,,,,,,,,,48.78653179202229,49.75932712503709,,,,,,,,,,,,,,,,,281187,001,2024-05-08_20h51.42.724,creatingimagesNEW,2024.1.4,None,2024-05-08 20h51.52.402058 -0400,
"(-0.25, 0)",g,"(0.25, 0)",,,2,7,25,8,,,,,49.766061042028014,,,,,,,,,,,,,,,,49.75949995900737,51.22898700000951,,,,,,,,,,,,,,,,,281187,001,2024-05-08_20h51.42.724,creatingimagesNEW,2024.1.4,None,2024-05-08 20h51.52.402058 -0400,
"(0, 0.25)",g,0.0,,,2,8,26,0,,,,,51.23848620901117,,,,,,,,,,,,,,,,51.22914558404591,52.20137004199205,,,,,,,,,,,,,,,,,281187,001,2024-05-08_20h51.42.724,creatingimagesNEW,2024.1.4,None,2024-05-08 20h51.52.402058 -0400,
,,,,,,,,,,,,,,,,,,,,,,,,,,,,,,,52.20149958401453,52.20938037504675,53.19506891700439,53.51335212500999,space,0.3137702090316452,None,,,,,,,,,,281187,001,2024-05-08_20h51.42.724,creatingimagesNEW,2024.1.4,None,2024-05-08 20h51.52.402058 -0400,
"(0.25, 0)",r,,"(-0.1875, 0.1875)",0.0,,,,,0,0,0,26,53.58793141704518,,,,,,,,,,,,,,,,,,,,,,,,,53.57924383401405,55.15177404199494,,,,,,,,281187,001,2024-05-08_20h51.42.724,creatingimagesNEW,2024.1.4,None,2024-05-08 20h51.52.402058 -0400,
"(0.25, 0)",g,,0.0,0.0,,,,,0,1,1,2,55.161301792017184,,,,,,,,,,,,,,,,,,,,,,,,,55.151927417027764,56.52431687503122,,,,,,,,281187,001,2024-05-08_20h51.42.724,creatingimagesNEW,2024.1.4,None,2024-05-08 20h51.52.402058 -0400,
"(0.25, 0)",b,,0.0,0.0,,,,,0,2,2,42,56.531379833992105,,,,,,,,,,,,,,,,,,,,,,,,,56.52447312499862,58.3946252920432,,,,,,,,281187,001,2024-05-08_20h51.42.724,creatingimagesNEW,2024.1.4,None,2024-05-08 20h51.52.402058 -0400,
"(0, 0.25)",r,,"(-0.1875, -0.1875)",0.0,,,,,0,3,3,24,58.40273470903048,,,,,,,,,,,,,,,,,,,,,,,,,58.39478291699197,59.66484725003829,,,,,,,,281187,001,2024-05-08_20h51.42.724,creatingimagesNEW,2024.1.4,None,2024-05-08 20h51.52.402058 -0400,
"(0, -0.25)",g,,0.0,0.0,,,,,0,4,4,4,59.671698249992914,,,,,,,,,,,,,,,,,,,,,,,,,59.66500062501291,61.03546208399348,,,,,,,,281187,001,2024-05-08_20h51.42.724,creatingimagesNEW,2024.1.4,None,2024-05-08 20h51.52.402058 -0400,
"(-0.1875, 0.1875)",g,,0.0,"(0.25, 0)",,,,,0,5,5,39,61.04275337501895,,,,,,,,,,,,,,,,,,,,,,,,,61.035729333991185,62.70603266701801,,,,,,,,281187,001,2024-05-08_20h51.42.724,creatingimagesNEW,2024.1.4,None,2024-05-08 20h51.52.402058 -0400,
"(0.25, 0)",g,,"(-0.1875, 0.1875)",0.0,,,,,0,6,6,10,62.713328334037215,,,,,,,,,,,,,,,,,,,,,,,,,62.70620120904641,64.27617229201132,,,,,,,,281187,001,2024-05-08_20h51.42.724,creatingimagesNEW,2024.1.4,None,2024-05-08 20h51.52.402058 -0400,
"(0.1875, 0.1875)",g,,"(0, -0.25)",0.0,,,,,0,7,7,9,64.28407629200956,,,,,,,,,,,,,,,,,,,,,,,,,64.2763371670153,65.75928795902291,,,,,,,,281187,001,2024-05-08_20h51.42.724,creatingimagesNEW,2024.1.4,None,2024-05-08 20h51.52.402058 -0400,
"(-0.25, 0)",b,,0.0,"(0.1875, -0.1875)",,,,,0,8,8,54,65.76626716699684,,,,,,,,,,,,,,,,,,,,,,,,,65.75945083401166,67.4310887500178,,,,,,,,281187,001,2024-05-08_20h51.42.724,creatingimagesNEW,2024.1.4,None,2024-05-08 20h51.52.402058 -0400,
"(0, -0.25)",g,,0.0,"(0.1875, 0.1875)",,,,,0,9,9,36,67.44196000002557,,,,,,,,,,,,,,,,,,,,,,,,,67.43125708401203,69.00775900000008,,,,,,,,281187,001,2024-05-08_20h51.42.724,creatingimagesNEW,2024.1.4,None,2024-05-08 20h51.52.402058 -0400,
"(0.25, 0)",g,,0.0,"(-0.1875, 0.1875)",,,,,0,10,10,34,69.01821912499145,,,,,,,,,,,,,,,,,,,,,,,,,69.00792883400572,70.38121537503321,,,,,,,,281187,001,2024-05-08_20h51.42.724,creatingimagesNEW,2024.1.4,None,2024-05-08 20h51.52.402058 -0400,
"(0.1875, 0.1875)",r,,0.0,0.0,,,,,0,11,11,17,70.39224404201377,,,,,,,,,,,,,,,,,,,,,,,,,70.38138454203727,71.55502337502548,,,,,,,,281187,001,2024-05-08_20h51.42.724,creatingimagesNEW,2024.1.4,None,2024-05-08 20h51.52.402058 -0400,
"(-0.1875, -0.1875)",g,,"(0, 0.25)",0.0,,,,,0,12,12,13,71.56176300003426,,,,,,,,,,,,,,,,,,,,,,,,,71.55518104200019,72.92520091700135,,,,,,,,281187,001,2024-05-08_20h51.42.724,creatingimagesNEW,2024.1.4,None,2024-05-08 20h51.52.402058 -0400,
"(-0.25, 0)",g,,0.0,"(0.1875, -0.1875)",,,,,0,13,13,38,72.93307937501231,,,,,,,,,,,,,,,,,,,,,,,,,72.92535304202465,74.09582625003532,,,,,,,,281187,001,2024-05-08_20h51.42.724,creatingimagesNEW,2024.1.4,None,2024-05-08 20h51.52.402058 -0400,
"(-0.1875, -0.1875)",r,,"(0, 0.25)",0.0,,,,,0,14,14,29,74.10230675002094,,,,,,,,,,,,,,,,,,,,,,,,,74.09597691701492,75.36558687500656,,,,,,,,281187,001,2024-05-08_20h51.42.724,creatingimagesNEW,2024.1.4,None,2024-05-08 20h51.52.402058 -0400,
"(0.1875, -0.1875)",g,,"(-0.25, 0)",0.0,,,,,0,15,15,11,75.37256058404455,,,,,,,,,,,,,,,,,,,,,,,,,75.36577825003769,76.63471383403521,,,,,,,,281187,001,2024-05-08_20h51.42.724,creatingimagesNEW,2024.1.4,None,2024-05-08 20h51.52.402058 -0400,
"(0.25, 0)",b,,0.0,"(-0.1875, 0.1875)",,,,,0,16,16,50,76.64168408402475,,,,,,,,,,,,,,,,,,,,,,,,,76.6348594170413,77.90505850000773,,,,,,,,281187,001,2024-05-08_20h51.42.724,creatingimagesNEW,2024.1.4,None,2024-05-08 20h51.52.402058 -0400,
"(0, 0.25)",g,,"(-0.1875, -0.1875)",0.0,,,,,0,17,17,8,77.91208233399084,,,,,,,,,,,,,,,,,,,,,,,,,77.90520999999717,79.0747108340147,,,,,,,,281187,001,2024-05-08_20h51.42.724,creatingimagesNEW,2024.1.4,None,2024-05-08 20h51.52.402058 -0400,
"(-0.1875, -0.1875)",b,,0.0,0.0,,,,,0,18,18,45,79.08175687503535,,,,,,,,,,,,,,,,,,,,,,,,,79.07486370904371,80.3439202500158,,,,,,,,281187,001,2024-05-08_20h51.42.724,creatingimagesNEW,2024.1.4,None,2024-05-08 20h51.52.402058 -0400,
"(0, 0.25)",b,,0.0,"(-0.1875, -0.1875)",,,,,0,19,19,48,80.3507375420304,,,,,,,,,,,,,,,,,,,,,,,,,80.34408450004412,81.51481445902027,,,,,,,,281187,001,2024-05-08_20h51.42.724,creatingimagesNEW,2024.1.4,None,2024-05-08 20h51.52.402058 -0400,
"(-0.25, 0)",r,,"(0.1875, -0.1875)",0.0,,,,,0,20,20,30,81.52162383403629,,,,,,,,,,,,,,,,,,,,,,,,,81.51497266703518,82.7838979170192,,,,,,,,281187,001,2024-05-08_20h51.42.724,creatingimagesNEW,2024.1.4,None,2024-05-08 20h51.52.402058 -0400,
"(0.1875, -0.1875)",r,,0.0,0.0,,,,,0,21,21,19,82.79051229200559,,,,,,,,,,,,,,,,,,,,,,,,,82.78404620900983,84.25353516702307,,,,,,,,281187,001,2024-05-08_20h51.42.724,creatingimagesNEW,2024.1.4,None,2024-05-08 20h51.52.402058 -0400,
"(0, -0.25)",b,,0.0,"(0.1875, 0.1875)",,,,,0,22,22,52,84.26084854203509,,,,,,,,,,,,,,,,,,,,,,,,,84.25368870899547,85.52463925001211,,,,,,,,281187,001,2024-05-08_20h51.42.724,creatingimagesNEW,2024.1.4,None,2024-05-08 20h51.52.402058 -0400,
"(-0.1875, 0.1875)",r,,0.0,0.0,,,,,0,23,23,23,85.5314405420213,,,,,,,,,,,,,,,,,,,,,,,,,85.52478954201797,86.69408191699767,,,,,,,,281187,001,2024-05-08_20h51.42.724,creatingimagesNEW,2024.1.4,None,2024-05-08 20h51.52.402058 -0400,
"(-0.25, 0)",r,,0.0,0.0,,,,,0,24,24,22,86.70075862499652,,,,,,,,,,,,,,,,,,,,,,,,,86.69423950003693,87.76271654199809,,,,,,,,281187,001,2024-05-08_20h51.42.724,creatingimagesNEW,2024.1.4,None,2024-05-08 20h51.52.402058 -0400,
"(0.1875, -0.1875)",r,,"(-0.25, 0)",0.0,,,,,0,25,25,27,87.76977800001623,,,,,,,,,,,,,,,,,,,,,,,,,87.76299033401301,88.83236291701905,,,,,,,,281187,001,2024-05-08_20h51.42.724,creatingimagesNEW,2024.1.4,None,2024-05-08 20h51.52.402058 -0400,
"(-0.1875, -0.1875)",g,,0.0,"(0, 0.25)",,,,,0,26,26,37,88.83930270903511,,,,,,,,,,,,,,,,,,,,,,,,,88.83251787500922,90.10191987501457,,,,,,,,281187,001,2024-05-08_20h51.42.724,creatingimagesNEW,2024.1.4,None,2024-05-08 20h51.52.402058 -0400,
"(0.25, 0)",r,,0.0,0.0,,,,,0,27,27,18,90.1087183339987,,,,,,,,,,,,,,,,,,,,,,,,,90.10206612502225,91.17049520899309,,,,,,,,281187,001,2024-05-08_20h51.42.724,creatingimagesNEW,2024.1.4,None,2024-05-08 20h51.52.402058 -0400,
"(-0.1875, 0.1875)",b,,0.0,0.0,,,,,0,28,28,47,91.17702854203526,,,,,,,,,,,,,,,,,,,,,,,,,91.17064333404414,92.5402293750085,,,,,,,,281187,001,2024-05-08_20h51.42.724,creatingimagesNEW,2024.1.4,None,2024-05-08 20h51.52.402058 -0400,
"(0, -0.25)",b,,0.0,0.0,,,,,0,29,29,44,92.5469893750269,,,,,,,,,,,,,,,,,,,,,,,,,92.54037925001467,93.90948516700882,,,,,,,,281187,001,2024-05-08_20h51.42.724,creatingimagesNEW,2024.1.4,None,2024-05-08 20h51.52.402058 -0400,
"(0.1875, 0.1875)",b,,0.0,0.0,,,,,0,30,30,41,93.91681895899819,,,,,,,,,,,,,,,,,,,,,,,,,93.9096413750085,95.28024670900777,,,,,,,,281187,001,2024-05-08_20h51.42.724,creatingimagesNEW,2024.1.4,None,2024-05-08 20h51.52.402058 -0400,
"(0.1875, -0.1875)",b,,0.0,0.0,,,,,0,31,31,43,95.28737700002966,,,,,,,,,,,,,,,,,,,,,,,,,95.28042516700225,96.65102799999295,,,,,,,,281187,001,2024-05-08_20h51.42.724,creatingimagesNEW,2024.1.4,None,2024-05-08 20h51.52.402058 -0400,
"(-0.1875, -0.1875)",r,,0.0,0.0,,,,,0,32,32,21,96.6584514999995,,,,,,,,,,,,,,,,,,,,,,,,,96.65118054201594,97.62033079203684,,,,,,,,281187,001,2024-05-08_20h51.42.724,creatingimagesNEW,2024.1.4,None,2024-05-08 20h51.52.402058 -0400,
"(0.1875, 0.1875)",b,,0.0,"(0, -0.25)",,,,,0,33,33,49,97.62699441699078,,,,,,,,,,,,,,,,,,,,,,,,,97.62048754200805,98.68976174999261,,,,,,,,281187,001,2024-05-08_20h51.42.724,creatingimagesNEW,2024.1.4,None,2024-05-08 20h51.52.402058 -0400,
"(0, 0.25)",g,,0.0,"(-0.1875, -0.1875)",,,,,0,34,34,32,98.69656820903765,,,,,,,,,,,,,,,,,,,,,,,,,98.68991666700458,100.55934645899106,,,,,,,,281187,001,2024-05-08_20h51.42.724,creatingimagesNEW,2024.1.4,None,2024-05-08 20h51.52.402058 -0400,
"(0.1875, -0.1875)",b,,0.0,"(-0.25, 0)",,,,,0,35,35,51,100.56716833403334,,,,,,,,,,,,,,,,,,,,,,,,,100.55951654200908,101.83006054203724,,,,,,,,281187,001,2024-05-08_20h51.42.724,creatingimagesNEW,2024.1.4,None,2024-05-08 20h51.52.402058 -0400,
"(0.1875, -0.1875)",g,,0.0,0.0,,,,,0,36,36,3,101.83695520902984,,,,,,,,,,,,,,,,,,,,,,,,,101.83021170902066,102.99864383402746,,,,,,,,281187,001,2024-05-08_20h51.42.724,creatingimagesNEW,2024.1.4,None,2024-05-08 20h51.52.402058 -0400,
None,None,,None,None,,,,,0,37,37,58,103.0054810839938,,,,,,,,,,,,,,,,,,,,,,,,,102.99879333400168,103.26604229200166,,,,,,,,281187,001,2024-05-08_20h51.42.724,creatingimagesNEW,2024.1.4,None,2024-05-08 20h51.52.402058 -0400,
"(0, 0.25)",r,,0.0,0.0,,,,,0,38,38,16,103.27354920899961,,,,,,,,,,,,,,,,,,,,,,,,,103.26623708399711,104.23450658400543,,,,,,,,281187,001,2024-05-08_20h51.42.724,creatingimagesNEW,2024.1.4,None,2024-05-08 20h51.52.402058 -0400,
None,None,,None,None,,,,,0,39,39,56,104.24131762504112,,,,,,,,,,,,,,,,,,,,,,,,,104.23467533400981,104.50367800000822,,,,,,,,281187,001,2024-05-08_20h51.42.724,creatingimagesNEW,2024.1.4,None,2024-05-08 20h51.52.402058 -0400,
None,None,,None,None,,,,,0,40,40,62,104.51052362500923,,,,,,,,,,,,,,,,,,,,,,,,,104.50388354202732,104.77084045903757,,,,,,,,281187,001,2024-05-08_20h51.42.724,creatingimagesNEW,2024.1.4,None,2024-05-08 20h51.52.402058 -0400,
"(-0.1875, -0.1875)",b,,0.0,"(0, 0.25)",,,,,0,41,41,53,104.78328816703288,,,,,,,,,,,,,,,,,,,,,,,,,104.7710132499924,106.14550575002795,,,,,,,,281187,001,2024-05-08_20h51.42.724,creatingimagesNEW,2024.1.4,None,2024-05-08 20h51.52.402058 -0400,
None,None,,None,None,,,,,0,42,42,61,106.15284887503367,,,,,,,,,,,,,,,,,,,,,,,,,106.14564975001849,106.41361366701312,,,,,,,,281187,001,2024-05-08_20h51.42.724,creatingimagesNEW,2024.1.4,None,2024-05-08 20h51.52.402058 -0400,
"(0.1875, -0.1875)",g,,0.0,"(-0.25, 0)",,,,,0,43,43,35,106.42000712500885,,,,,,,,,,,,,,,,,,,,,,,,,106.41382612503367,107.48179300001357,,,,,,,,281187,001,2024-05-08_20h51.42.724,creatingimagesNEW,2024.1.4,None,2024-05-08 20h51.52.402058 -0400,
None,None,,None,None,,,,,0,44,44,63,107.48884483403526,,,,,,,,,,,,,,,,,,,,,,,,,107.481995750044,107.75341279199347,,,,,,,,281187,001,2024-05-08_20h51.42.724,creatingimagesNEW,2024.1.4,None,2024-05-08 20h51.52.402058 -0400,
"(-0.1875, 0.1875)",b,,0.0,"(0.25, 0)",,,,,0,45,45,55,107.76111150003271,,,,,,,,,,,,,,,,,,,,,,,,,107.75362533400767,109.12406775000272,,,,,,,,281187,001,2024-05-08_20h51.42.724,creatingimagesNEW,2024.1.4,None,2024-05-08 20h51.52.402058 -0400,
"(0, 0.25)",g,,0.0,0.0,,,,,0,46,46,0,109.1312293750234,,,,,,,,,,,,,,,,,,,,,,,,,109.12422616704134,110.1936998750316,,,,,,,,281187,001,2024-05-08_20h51.42.724,creatingimagesNEW,2024.1.4,None,2024-05-08 20h51.52.402058 -0400,
"(0, -0.25)",r,,"(0.1875, 0.1875)",0.0,,,,,0,47,47,28,110.20067491702503,,,,,,,,,,,,,,,,,,,,,,,,,110.1938519999967,111.36227912502363,,,,,,,,281187,001,2024-05-08_20h51.42.724,creatingimagesNEW,2024.1.4,None,2024-05-08 20h51.52.402058 -0400,
"(-0.1875, 0.1875)",r,,"(0.25, 0)",0.0,,,,,0,48,48,31,111.36926316702738,,,,,,,,,,,,,,,,,,,,,,,,,111.36243000003742,112.63157708401559,,,,,,,,281187,001,2024-05-08_20h51.42.724,creatingimagesNEW,2024.1.4,None,2024-05-08 20h51.52.402058 -0400,
"(0.1875, 0.1875)",g,,0.0,"(0, -0.25)",,,,,0,49,49,33,112.6382404169999,,,,,,,,,,,,,,,,,,,,,,,,,112.6317282920354,113.80099187500309,,,,,,,,281187,001,2024-05-08_20h51.42.724,creatingimagesNEW,2024.1.4,None,2024-05-08 20h51.52.402058 -0400,
"(-0.1875, 0.1875)",g,,"(0.25, 0)",0.0,,,,,0,50,50,15,113.80785158404615,,,,,,,,,,,,,,,,,,,,,,,,,113.80114554200554,115.17062425002223,,,,,,,,281187,001,2024-05-08_20h51.42.724,creatingimagesNEW,2024.1.4,None,2024-05-08 20h51.52.402058 -0400,
"(-0.25, 0)",g,,0.0,0.0,,,,,0,51,51,6,115.17740804201458,,,,,,,,,,,,,,,,,,,,,,,,,115.17077125003561,116.23907145904377,,,,,,,,281187,001,2024-05-08_20h51.42.724,creatingimagesNEW,2024.1.4,None,2024-05-08 20h51.52.402058 -0400,
None,None,,None,None,,,,,0,52,52,59,116.24574437504634,,,,,,,,,,,,,,,,,,,,,,,,,116.23921429202892,116.50679229199886,,,,,,,,281187,001,2024-05-08_20h51.42.724,creatingimagesNEW,2024.1.4,None,2024-05-08 20h51.52.402058 -0400,
"(-0.25, 0)",g,,"(0.1875, -0.1875)",0.0,,,,,0,53,53,14,116.5147054590052,,,,,,,,,,,,,,,,,,,,,,,,,116.50700879201759,117.77626745903399,,,,,,,,281187,001,2024-05-08_20h51.42.724,creatingimagesNEW,2024.1.4,None,2024-05-08 20h51.52.402058 -0400,
"(0, -0.25)",g,,"(0.1875, 0.1875)",0.0,,,,,0,54,54,12,117.78305587504292,,,,,,,,,,,,,,,,,,,,,,,,,117.77641129202675,118.94509408401791,,,,,,,,281187,001,2024-05-08_20h51.42.724,creatingimagesNEW,2024.1.4,None,2024-05-08 20h51.52.402058 -0400,
"(0.1875, 0.1875)",g,,0.0,0.0,,,,,0,55,55,1,118.95201287500095,,,,,,,,,,,,,,,,,,,,,,,,,118.94526495900936,120.01422804204049,,,,,,,,281187,001,2024-05-08_20h51.42.724,creatingimagesNEW,2024.1.4,None,2024-05-08 20h51.52.402058 -0400,
"(0.1875, 0.1875)",r,,"(0, -0.25)",0.0,,,,,0,56,56,25,120.02092091704253,,,,,,,,,,,,,,,,,,,,,,,,,120.01437816699035,121.18274912500056,,,,,,,,281187,001,2024-05-08_20h51.42.724,creatingimagesNEW,2024.1.4,None,2024-05-08 20h51.52.402058 -0400,
"(0, -0.25)",r,,0.0,0.0,,,,,0,57,57,20,121.18942145904293,,,,,,,,,,,,,,,,,,,,,,,,,121.18290216702735,122.25084824999794,,,,,,,,281187,001,2024-05-08_20h51.42.724,creatingimagesNEW,2024.1.4,None,2024-05-08 20h51.52.402058 -0400,
None,None,,None,None,,,,,0,58,58,60,122.25753624999197,,,,,,,,,,,,,,,,,,,,,,,,,122.25099379202584,122.5194809170207,,,,,,,,281187,001,2024-05-08_20h51.42.724,creatingimagesNEW,2024.1.4,None,2024-05-08 20h51.52.402058 -0400,
"(-0.1875, 0.1875)",g,,0.0,0.0,,,,,0,59,59,7,122.5281812500325,,,,,,,,,,,,,,,,,,,,,,,,,122.51970104203792,124.59126887499588,,,,,,,,281187,001,2024-05-08_20h51.42.724,creatingimagesNEW,2024.1.4,None,2024-05-08 20h51.52.402058 -0400,
"(-0.25, 0)",b,,0.0,0.0,,,,,0,60,60,46,124.59874475002289,,,,,,,,,,,,,,,,,,,,,,,,,124.59142312500626,125.86191483400762,,,,,,,,281187,001,2024-05-08_20h51.42.724,creatingimagesNEW,2024.1.4,None,2024-05-08 20h51.52.402058 -0400,
"(0, 0.25)",b,,0.0,0.0,,,,,0,61,61,40,125.8687626250321,,,,,,,,,,,,,,,,,,,,,,,,,125.86206725001102,127.03135425003711,,,,,,,,281187,001,2024-05-08_20h51.42.724,creatingimagesNEW,2024.1.4,None,2024-05-08 20h51.52.402058 -0400,
None,None,,None,None,,,,,0,62,62,57,127.03796400001738,,,,,,,,,,,,,,,,,,,,,,,,,127.03150575002655,127.2999287500279,,,,,,,,281187,001,2024-05-08_20h51.42.724,creatingimagesNEW,2024.1.4,None,2024-05-08 20h51.52.402058 -0400,
"(-0.1875, -0.1875)",g,,0.0,0.0,,,,,0,63,63,5,127.30674416699912,,,,,,,,,,,,,,,,,,,,,,,,,127.30011925002327,128.4693690839922,,,,,,,,281187,001,2024-05-08_20h51.42.724,creatingimagesNEW,2024.1.4,None,2024-05-08 20h51.52.402058 -0400,
,,,,,,,,,,,,,,,,,,,,,,,,,,,,,,,,,,,,,,,,128.46949970902642,128.47765675000846,128.47765675000846,129.64273779198993,space,1.1586833340115845,None,281187,001,2024-05-08_20h51.42.724,creatingimagesNEW,2024.1.4,None,2024-05-08 20h51.52.402058 -0400,
