triangle_pos,triangle_color,pink_circle_pos,trials.thisRepN,trials.thisTrialN,trials.thisN,trials.thisIndex,thisRow.t,notes,Welcome_Page.started,textWelcomePage.started,key_resp.started,Welcome_Page.stopped,key_resp.keys,key_resp.rt,key_resp.duration,test_trial.started,test_trial.stopped,code_attempt.started,code_attempt.stopped,End_Routine.started,End_Text.started,key_resp_2.started,End_Routine.stopped,key_resp_2.keys,key_resp_2.rt,key_resp_2.duration,participant,session,date,expName,psychopyVersion,frameRate,expStart,
,,,,,,,,,0.017787582997698337,0.0501278750016354,1.9906022500363179,3.9912730409996584,space,1.9971702910261229,None,,,,,,,,,,,,315111,001,2024-05-06_12h43.07.586,creatingimagesNEW,2024.1.4,None,2024-05-06 12h43.14.671287 -0400,
,,,,,,,,,,,,,,,,3.991306625015568,3.991607790987473,,,,,,,,,,315111,001,2024-05-06_12h43.07.586,creatingimagesNEW,2024.1.4,None,2024-05-06 12h43.14.671287 -0400,
"(0.1875, 0.1875)",p,0.0,0,0,0,17,4.054635125037748,,,,,,,,,,,4.024776874983218,5.320917040982749,,,,,,,,315111,001,2024-05-06_12h43.07.586,creatingimagesNEW,2024.1.4,None,2024-05-06 12h43.14.671287 -0400,
"(0, 0.25)",g,"(-0.1875, -0.1875)",0,1,1,8,5.3277144160238095,,,,,,,,,,,5.32112658303231,6.590159500017762,,,,,,,,315111,001,2024-05-06_12h43.07.586,creatingimagesNEW,2024.1.4,None,2024-05-06 12h43.14.671287 -0400,
"(-0.1875, -0.1875)",g,0.0,0,2,2,5,6.59684308298165,,,,,,,,,,,6.590327083016746,7.858308333030436,,,,,,,,315111,001,2024-05-06_12h43.07.586,creatingimagesNEW,2024.1.4,None,2024-05-06 12h43.14.671287 -0400,
"(0.1875, 0.1875)",g,0.0,0,3,3,1,7.864930415991694,,,,,,,,,,,7.858486625016667,9.128414165985305,,,,,,,,315111,001,2024-05-06_12h43.07.586,creatingimagesNEW,2024.1.4,None,2024-05-06 12h43.14.671287 -0400,
"(0, -0.25)",p,0.0,0,4,4,20,9.135512790991925,,,,,,,,,,,9.128585125028621,10.397660666028969,,,,,,,,315111,001,2024-05-06_12h43.07.586,creatingimagesNEW,2024.1.4,None,2024-05-06 12h43.14.671287 -0400,
"(-0.25, 0)",g,0.0,0,5,5,6,10.40453520801384,,,,,,,,,,,10.397814791009296,11.666593166009989,,,,,,,,315111,001,2024-05-06_12h43.07.586,creatingimagesNEW,2024.1.4,None,2024-05-06 12h43.14.671287 -0400,
"(0.1875, -0.1875)",p,0.0,0,6,6,19,11.673239750030916,,,,,,,,,,,11.666746250004508,12.935272999980953,,,,,,,,315111,001,2024-05-06_12h43.07.586,creatingimagesNEW,2024.1.4,None,2024-05-06 12h43.14.671287 -0400,
"(-0.1875, -0.1875)",p,0.0,0,7,7,21,12.941831915988587,,,,,,,,,,,12.935426915995777,14.203664583037607,,,,,,,,315111,001,2024-05-06_12h43.07.586,creatingimagesNEW,2024.1.4,None,2024-05-06 12h43.14.671287 -0400,
"(-0.25, 0)",g,"(0.1875, -0.1875)",0,8,8,14,14.210186999989673,,,,,,,,,,,14.203814083011821,15.471810374991037,,,,,,,,315111,001,2024-05-06_12h43.07.586,creatingimagesNEW,2024.1.4,None,2024-05-06 12h43.14.671287 -0400,
"(-0.1875, 0.1875)",g,"(0.1875, 0.1875)",0,9,9,15,15.478224333026446,,,,,,,,,,,15.471974625019357,16.740307833009865,,,,,,,,315111,001,2024-05-06_12h43.07.586,creatingimagesNEW,2024.1.4,None,2024-05-06 12h43.14.671287 -0400,
"(0.1875, -0.1875)",g,"(0.25, 0)",0,10,10,11,16.74700329103507,,,,,,,,,,,16.7404677500017,18.008956208010204,,,,,,,,315111,001,2024-05-06_12h43.07.586,creatingimagesNEW,2024.1.4,None,2024-05-06 12h43.14.671287 -0400,
"(-0.25, 0)",p,0.0,0,11,11,22,18.015575833036564,,,,,,,,,,,18.009124999982305,19.277493541012518,,,,,,,,315111,001,2024-05-06_12h43.07.586,creatingimagesNEW,2024.1.4,None,2024-05-06 12h43.14.671287 -0400,
"(-0.1875, 0.1875)",p,0.0,0,12,12,23,19.284113665984478,,,,,,,,,,,19.277653583034407,20.545958957984112,,,,,,,,315111,001,2024-05-06_12h43.07.586,creatingimagesNEW,2024.1.4,None,2024-05-06 12h43.14.671287 -0400,
"(0, 0.25)",g,0.0,0,13,13,0,20.552773500035983,,,,,,,,,,,20.546113250020426,21.814694833010435,,,,,,,,315111,001,2024-05-06_12h43.07.586,creatingimagesNEW,2024.1.4,None,2024-05-06 12h43.14.671287 -0400,
"(0, 0.25)",p,0.0,0,14,14,16,21.821095500024967,,,,,,,,,,,21.814844499982428,23.082748832996003,,,,,,,,315111,001,2024-05-06_12h43.07.586,creatingimagesNEW,2024.1.4,None,2024-05-06 12h43.14.671287 -0400,
"(-0.1875, -0.1875)",g,"(-0.25, 0)",0,15,15,13,23.089139458024874,,,,,,,,,,,23.082898541004397,25.350732500024606,,,,,,,,315111,001,2024-05-06_12h43.07.586,creatingimagesNEW,2024.1.4,None,2024-05-06 12h43.14.671287 -0400,
"(0.1875, 0.1875)",g,"(0, -0.25)",0,16,16,9,25.359944833035115,,,,,,,,,,,25.35089629102731,26.62256458302727,,,,,,,,315111,001,2024-05-06_12h43.07.586,creatingimagesNEW,2024.1.4,None,2024-05-06 12h43.14.671287 -0400,
"(0, -0.25)",g,"(-0.1875, 0.1875)",0,17,17,12,26.62924787501106,,,,,,,,,,,26.622733958007302,27.89110858301865,,,,,,,,315111,001,2024-05-06_12h43.07.586,creatingimagesNEW,2024.1.4,None,2024-05-06 12h43.14.671287 -0400,
"(0.25, 0)",g,0.0,0,18,18,2,27.897948166006245,,,,,,,,,,,27.891268500010483,29.160975166014396,,,,,,,,315111,001,2024-05-06_12h43.07.586,creatingimagesNEW,2024.1.4,None,2024-05-06 12h43.14.671287 -0400,
"(-0.1875, 0.1875)",g,0.0,0,19,19,7,29.167719916033093,,,,,,,,,,,29.16113875003066,30.430618082988076,,,,,,,,315111,001,2024-05-06_12h43.07.586,creatingimagesNEW,2024.1.4,None,2024-05-06 12h43.14.671287 -0400,
"(0.25, 0)",p,0.0,0,20,20,18,30.43713450001087,,,,,,,,,,,30.430777000030503,31.699153374996968,,,,,,,,315111,001,2024-05-06_12h43.07.586,creatingimagesNEW,2024.1.4,None,2024-05-06 12h43.14.671287 -0400,
"(0.1875, -0.1875)",g,0.0,0,21,21,3,31.70558270800393,,,,,,,,,,,31.699310458032414,32.9675016659894,,,,,,,,315111,001,2024-05-06_12h43.07.586,creatingimagesNEW,2024.1.4,None,2024-05-06 12h43.14.671287 -0400,
"(0, -0.25)",g,0.0,0,22,22,4,32.974052875011694,,,,,,,,,,,32.96765474998392,34.23615179100307,,,,,,,,315111,001,2024-05-06_12h43.07.586,creatingimagesNEW,2024.1.4,None,2024-05-06 12h43.14.671287 -0400,
"(0.25, 0)",g,"(0, 0.25)",0,23,23,10,34.243386541027576,,,,,,,,,,,34.236363833013456,35.505187165981624,,,,,,,,315111,001,2024-05-06_12h43.07.586,creatingimagesNEW,2024.1.4,None,2024-05-06 12h43.14.671287 -0400,
"(0, 0.25)",p,0.0,1,0,24,16,35.51166116603417,,,,,,,,,,,35.50535275001312,36.773801999981515,,,,,,,,315111,001,2024-05-06_12h43.07.586,creatingimagesNEW,2024.1.4,None,2024-05-06 12h43.14.671287 -0400,
"(0.25, 0)",g,"(0, 0.25)",1,1,25,10,36.78051016601967,,,,,,,,,,,36.77396633301396,38.042831250000745,,,,,,,,315111,001,2024-05-06_12h43.07.586,creatingimagesNEW,2024.1.4,None,2024-05-06 12h43.14.671287 -0400,
"(0.1875, 0.1875)",g,0.0,1,2,26,1,38.04946225002641,,,,,,,,,,,38.04299370798981,39.31129279098241,,,,,,,,315111,001,2024-05-06_12h43.07.586,creatingimagesNEW,2024.1.4,None,2024-05-06 12h43.14.671287 -0400,
"(0.1875, 0.1875)",p,0.0,1,3,27,17,39.317614208033774,,,,,,,,,,,39.31144683301682,40.579026749997865,,,,,,,,315111,001,2024-05-06_12h43.07.586,creatingimagesNEW,2024.1.4,None,2024-05-06 12h43.14.671287 -0400,
"(0, -0.25)",p,0.0,1,4,28,20,40.585535416030325,,,,,,,,,,,40.57918000000063,41.84700275002979,,,,,,,,315111,001,2024-05-06_12h43.07.586,creatingimagesNEW,2024.1.4,None,2024-05-06 12h43.14.671287 -0400,
"(-0.1875, 0.1875)",g,0.0,1,5,29,7,41.853566957986914,,,,,,,,,,,41.84716375003336,43.11568270798307,,,,,,,,315111,001,2024-05-06_12h43.07.586,creatingimagesNEW,2024.1.4,None,2024-05-06 12h43.14.671287 -0400,
"(-0.1875, -0.1875)",p,0.0,1,6,30,21,43.122196416021325,,,,,,,,,,,43.115835583012085,44.38376525003696,,,,,,,,315111,001,2024-05-06_12h43.07.586,creatingimagesNEW,2024.1.4,None,2024-05-06 12h43.14.671287 -0400,
"(-0.25, 0)",p,0.0,1,7,31,22,44.39033608301543,,,,,,,,,,,44.38392095803283,45.65196491603274,,,,,,,,315111,001,2024-05-06_12h43.07.586,creatingimagesNEW,2024.1.4,None,2024-05-06 12h43.14.671287 -0400,
"(0, 0.25)",g,"(-0.1875, -0.1875)",1,8,32,8,45.658583124983124,,,,,,,,,,,45.65213283302728,46.920646707993,,,,,,,,315111,001,2024-05-06_12h43.07.586,creatingimagesNEW,2024.1.4,None,2024-05-06 12h43.14.671287 -0400,
"(0.1875, -0.1875)",g,0.0,1,9,33,3,46.927330082980916,,,,,,,,,,,46.92080795799848,48.189446999982465,,,,,,,,315111,001,2024-05-06_12h43.07.586,creatingimagesNEW,2024.1.4,None,2024-05-06 12h43.14.671287 -0400,
"(-0.1875, 0.1875)",p,0.0,1,10,34,23,48.195677915995475,,,,,,,,,,,48.18958841601852,49.45761774998391,,,,,,,,315111,001,2024-05-06_12h43.07.586,creatingimagesNEW,2024.1.4,None,2024-05-06 12h43.14.671287 -0400,
"(-0.1875, 0.1875)",g,"(0.1875, 0.1875)",1,11,35,15,49.46405125001911,,,,,,,,,,,49.45777383301174,50.72580812498927,,,,,,,,315111,001,2024-05-06_12h43.07.586,creatingimagesNEW,2024.1.4,None,2024-05-06 12h43.14.671287 -0400,
"(0.1875, -0.1875)",g,"(0.25, 0)",1,12,36,11,50.73222495801747,,,,,,,,,,,50.7259528330178,52.99425558303483,,,,,,,,315111,001,2024-05-06_12h43.07.586,creatingimagesNEW,2024.1.4,None,2024-05-06 12h43.14.671287 -0400,
"(0, -0.25)",g,"(-0.1875, 0.1875)",1,13,37,12,53.00362149998546,,,,,,,,,,,52.99441383301746,54.265362875012215,,,,,,,,315111,001,2024-05-06_12h43.07.586,creatingimagesNEW,2024.1.4,None,2024-05-06 12h43.14.671287 -0400,
"(0.1875, 0.1875)",g,"(0, -0.25)",1,14,38,9,54.27188145800028,,,,,,,,,,,54.26551587501308,55.53387333301362,,,,,,,,315111,001,2024-05-06_12h43.07.586,creatingimagesNEW,2024.1.4,None,2024-05-06 12h43.14.671287 -0400,
"(-0.25, 0)",g,0.0,1,15,39,6,55.540383791027125,,,,,,,,,,,55.534032083000056,56.80264383298345,,,,,,,,315111,001,2024-05-06_12h43.07.586,creatingimagesNEW,2024.1.4,None,2024-05-06 12h43.14.671287 -0400,
"(0, 0.25)",g,0.0,1,16,40,0,56.80917216598755,,,,,,,,,,,56.80281337501947,58.07095349999145,,,,,,,,315111,001,2024-05-06_12h43.07.586,creatingimagesNEW,2024.1.4,None,2024-05-06 12h43.14.671287 -0400,
"(0, -0.25)",g,0.0,1,17,41,4,58.07731079100631,,,,,,,,,,,58.07109749998199,59.33884937502444,,,,,,,,315111,001,2024-05-06_12h43.07.586,creatingimagesNEW,2024.1.4,None,2024-05-06 12h43.14.671287 -0400,
"(-0.1875, -0.1875)",g,"(-0.25, 0)",1,18,42,13,59.345172750006896,,,,,,,,,,,59.33900154102594,60.66480575001333,,,,,,,,315111,001,2024-05-06_12h43.07.586,creatingimagesNEW,2024.1.4,None,2024-05-06 12h43.14.671287 -0400,
"(0.1875, -0.1875)",p,0.0,1,19,43,19,60.671233500004746,,,,,,,,,,,60.66495829098858,61.933028500003275,,,,,,,,315111,001,2024-05-06_12h43.07.586,creatingimagesNEW,2024.1.4,None,2024-05-06 12h43.14.671287 -0400,
"(-0.1875, -0.1875)",g,0.0,1,20,44,5,61.939648833009414,,,,,,,,,,,61.93318420799915,63.201567790994886,,,,,,,,315111,001,2024-05-06_12h43.07.586,creatingimagesNEW,2024.1.4,None,2024-05-06 12h43.14.671287 -0400,
"(0.25, 0)",p,0.0,1,21,45,18,63.20791304099839,,,,,,,,,,,63.20172100001946,64.46968441602075,,,,,,,,315111,001,2024-05-06_12h43.07.586,creatingimagesNEW,2024.1.4,None,2024-05-06 12h43.14.671287 -0400,
"(-0.25, 0)",g,"(0.1875, -0.1875)",1,22,46,14,64.47606200003065,,,,,,,,,,,64.46983595803613,65.73771383299027,,,,,,,,315111,001,2024-05-06_12h43.07.586,creatingimagesNEW,2024.1.4,None,2024-05-06 12h43.14.671287 -0400,
"(0.25, 0)",g,0.0,1,23,47,2,65.74419233301887,,,,,,,,,,,65.73786229098914,67.00603141600732,,,,,,,,315111,001,2024-05-06_12h43.07.586,creatingimagesNEW,2024.1.4,None,2024-05-06 12h43.14.671287 -0400,
"(-0.1875, 0.1875)",g,0.0,2,0,48,7,67.01250495802378,,,,,,,,,,,67.00618333299644,68.27412100002402,,,,,,,,315111,001,2024-05-06_12h43.07.586,creatingimagesNEW,2024.1.4,None,2024-05-06 12h43.14.671287 -0400,
"(0, 0.25)",g,0.0,2,1,49,0,68.28047137503745,,,,,,,,,,,68.27426766598364,69.54239679098828,,,,,,,,315111,001,2024-05-06_12h43.07.586,creatingimagesNEW,2024.1.4,None,2024-05-06 12h43.14.671287 -0400,
"(0.25, 0)",g,0.0,2,2,50,2,69.54944924998563,,,,,,,,,,,69.54261412500637,70.81337691599037,,,,,,,,315111,001,2024-05-06_12h43.07.586,creatingimagesNEW,2024.1.4,None,2024-05-06 12h43.14.671287 -0400,
"(0, 0.25)",p,0.0,2,3,51,16,70.8203896250343,,,,,,,,,,,70.81361750001088,72.08385333302431,,,,,,,,315111,001,2024-05-06_12h43.07.586,creatingimagesNEW,2024.1.4,None,2024-05-06 12h43.14.671287 -0400,
"(-0.1875, -0.1875)",g,0.0,2,4,52,5,72.09051887498936,,,,,,,,,,,72.08404225000413,73.35212616599165,,,,,,,,315111,001,2024-05-06_12h43.07.586,creatingimagesNEW,2024.1.4,None,2024-05-06 12h43.14.671287 -0400,
"(0.1875, -0.1875)",g,0.0,2,5,53,3,73.35861379100243,,,,,,,,,,,73.35228145803558,74.6203989579808,,,,,,,,315111,001,2024-05-06_12h43.07.586,creatingimagesNEW,2024.1.4,None,2024-05-06 12h43.14.671287 -0400,
"(0.1875, 0.1875)",p,0.0,2,6,54,17,74.62669237499358,,,,,,,,,,,74.62054616602836,75.88837462500669,,,,,,,,315111,001,2024-05-06_12h43.07.586,creatingimagesNEW,2024.1.4,None,2024-05-06 12h43.14.671287 -0400,
"(0.1875, 0.1875)",g,"(0, -0.25)",2,7,55,9,75.89493291598046,,,,,,,,,,,75.88853070803452,77.15685720799956,,,,,,,,315111,001,2024-05-06_12h43.07.586,creatingimagesNEW,2024.1.4,None,2024-05-06 12h43.14.671287 -0400,
"(0.1875, -0.1875)",p,0.0,2,8,56,19,77.1632990000071,,,,,,,,,,,77.15700983302668,78.42490695801098,,,,,,,,315111,001,2024-05-06_12h43.07.586,creatingimagesNEW,2024.1.4,None,2024-05-06 12h43.14.671287 -0400,
"(0.25, 0)",p,0.0,2,9,57,18,78.43146366602741,,,,,,,,,,,78.42505933303619,79.69287983299,,,,,,,,315111,001,2024-05-06_12h43.07.586,creatingimagesNEW,2024.1.4,None,2024-05-06 12h43.14.671287 -0400,
"(0, -0.25)",p,0.0,2,10,58,20,79.69949645799352,,,,,,,,,,,79.69303212501109,80.96101037500193,,,,,,,,315111,001,2024-05-06_12h43.07.586,creatingimagesNEW,2024.1.4,None,2024-05-06 12h43.14.671287 -0400,
"(-0.1875, -0.1875)",p,0.0,2,11,59,21,80.96738366602222,,,,,,,,,,,80.96116191602778,82.22852233302547,,,,,,,,315111,001,2024-05-06_12h43.07.586,creatingimagesNEW,2024.1.4,None,2024-05-06 12h43.14.671287 -0400,
"(0.1875, 0.1875)",g,0.0,2,12,60,1,82.23497625003802,,,,,,,,,,,82.22866341599729,83.49660374998348,,,,,,,,315111,001,2024-05-06_12h43.07.586,creatingimagesNEW,2024.1.4,None,2024-05-06 12h43.14.671287 -0400,
"(0, 0.25)",g,"(-0.1875, -0.1875)",2,13,61,8,83.50325116602471,,,,,,,,,,,83.49675749999005,84.76500120799756,,,,,,,,315111,001,2024-05-06_12h43.07.586,creatingimagesNEW,2024.1.4,None,2024-05-06 12h43.14.671287 -0400,
"(0.1875, -0.1875)",g,"(0.25, 0)",2,14,62,11,84.77149291598471,,,,,,,,,,,84.76515083300183,86.03286537498934,,,,,,,,315111,001,2024-05-06_12h43.07.586,creatingimagesNEW,2024.1.4,None,2024-05-06 12h43.14.671287 -0400,
"(-0.25, 0)",p,0.0,2,15,63,22,86.03962104098173,,,,,,,,,,,86.03302145801717,87.30177416600054,,,,,,,,315111,001,2024-05-06_12h43.07.586,creatingimagesNEW,2024.1.4,None,2024-05-06 12h43.14.671287 -0400,
"(-0.25, 0)",g,0.0,2,16,64,6,87.3081824160181,,,,,,,,,,,87.30192529101623,88.56981399998767,,,,,,,,315111,001,2024-05-06_12h43.07.586,creatingimagesNEW,2024.1.4,None,2024-05-06 12h43.14.671287 -0400,
"(-0.1875, -0.1875)",g,"(-0.25, 0)",2,17,65,13,88.57626879098825,,,,,,,,,,,88.569971000019,89.83826254098676,,,,,,,,315111,001,2024-05-06_12h43.07.586,creatingimagesNEW,2024.1.4,None,2024-05-06 12h43.14.671287 -0400,
"(0, -0.25)",g,"(-0.1875, 0.1875)",2,18,66,12,89.8447302079876,,,,,,,,,,,89.83841962501174,91.10646916599944,,,,,,,,315111,001,2024-05-06_12h43.07.586,creatingimagesNEW,2024.1.4,None,2024-05-06 12h43.14.671287 -0400,
"(0, -0.25)",g,0.0,2,19,67,4,91.11288566602161,,,,,,,,,,,91.10662224999396,92.37462108302861,,,,,,,,315111,001,2024-05-06_12h43.07.586,creatingimagesNEW,2024.1.4,None,2024-05-06 12h43.14.671287 -0400,
"(-0.25, 0)",g,"(0.1875, -0.1875)",2,20,68,14,92.3811334160273,,,,,,,,,,,92.37477900000522,93.64283837500261,,,,,,,,315111,001,2024-05-06_12h43.07.586,creatingimagesNEW,2024.1.4,None,2024-05-06 12h43.14.671287 -0400,
"(-0.1875, 0.1875)",p,0.0,2,21,69,23,93.6493255830137,,,,,,,,,,,93.642995333008,94.9110622080043,,,,,,,,315111,001,2024-05-06_12h43.07.586,creatingimagesNEW,2024.1.4,None,2024-05-06 12h43.14.671287 -0400,
"(0.25, 0)",g,"(0, 0.25)",2,22,70,10,94.91779041598784,,,,,,,,,,,94.91121891600778,96.17963195801713,,,,,,,,315111,001,2024-05-06_12h43.07.586,creatingimagesNEW,2024.1.4,None,2024-05-06 12h43.14.671287 -0400,
"(-0.1875, 0.1875)",g,"(0.1875, 0.1875)",2,23,71,15,96.18606145802187,,,,,,,,,,,96.17978291603504,97.4481706660008,,,,,,,,315111,001,2024-05-06_12h43.07.586,creatingimagesNEW,2024.1.4,None,2024-05-06 12h43.14.671287 -0400,
,,,,,,,,,,,,,,,,,,,,97.4482741660322,97.45490950002568,97.45490950002568,98.3959617500077,space,0.9352950829779729,None,315111,001,2024-05-06_12h43.07.586,creatingimagesNEW,2024.1.4,None,2024-05-06 12h43.14.671287 -0400,
