triangle_pos,triangle_color,pink_circle_pos,blue_circle_pos,red_circle_pos,test_trial_before_experiment.thisRepN,test_trial_before_experiment.thisTrialN,test_trial_before_experiment.thisN,test_trial_before_experiment.thisIndex,trials.thisRepN,trials.thisTrialN,trials.thisN,trials.thisIndex,thisRow.t,notes,Welcome_Page.started,textWelcomePage.started,key_resp.started,Welcome_Page.stopped,key_resp.keys,key_resp.rt,key_resp.duration,Test_Trial_routine_instructions.started,text.started,key_resp_3.started,Test_Trial_routine_instructions.stopped,key_resp_3.keys,key_resp_3.rt,key_resp_3.duration,test_trial.started,test_trial.stopped,Actual_Trial_Instructions.started,actual_trial_intructions.started,key_resp_4.started,Actual_Trial_Instructions.stopped,key_resp_4.keys,key_resp_4.rt,key_resp_4.duration,Real_Trials.started,Real_Trials.stopped,End_Routine.started,End_Text.started,key_resp_2.started,End_Routine.stopped,key_resp_2.keys,key_resp_2.rt,key_resp_2.duration,participant,session,date,expName,psychopyVersion,frameRate,expStart,
,,,,,,,,,,,,,,,0.028088541002944112,0.05280420799681451,1.9934956249926472,3.4289274159964407,space,1.40150295800413,None,,,,,,,,,,,,,,,,,,,,,,,,,,463601,001,2024-05-12_00h41.30.327,creatingimagesNEW,2024.1.4,None,2024-05-12 00h41.36.819984 -0400,
,,,,,,,,,,,,,,,,,,,,,,3.4290000409964705,3.469963582989294,4.425912374994368,6.6542726249899715,space,2.223912624991499,None,,,,,,,,,,,,,,,,,,,463601,001,2024-05-12_00h41.30.327,creatingimagesNEW,2024.1.4,None,2024-05-12 00h41.36.819984 -0400,
"(0.25, 0)",r,0.0,0.0,,0,0,0,11,,,,,6.7645990409946535,,,,,,,,,,,,,,,,6.738805707995198,7.830838082998525,,,,,,,,,,,,,,,,,463601,001,2024-05-12_00h41.30.327,creatingimagesNEW,2024.1.4,None,2024-05-12 00h41.36.819984 -0400,
"(-0.1875, 0.1875)",g,"(-0.25, 0)",0.0,,0,1,1,7,,,,,7.83750420800061,,,,,,,,,,,,,,,,7.83101466599328,8.599138666002546,,,,,,,,,,,,,,,,,463601,001,2024-05-12_00h41.30.327,creatingimagesNEW,2024.1.4,None,2024-05-12 00h41.36.819984 -0400,
"(-0.1875, 0.1875)",b,0.0,0.0,,0,2,2,16,,,,,8.60575862499536,,,,,,,,,,,,,,,,8.599290707992623,9.567673083001864,,,,,,,,,,,,,,,,,463601,001,2024-05-12_00h41.30.327,creatingimagesNEW,2024.1.4,None,2024-05-12 00h41.36.819984 -0400,
"(-0.1875, -0.1875)",r,0.0,0.0,,0,3,3,4,,,,,9.574314457990113,,,,,,,,,,,,,,,,9.567842040996766,10.735805332995369,,,,,,,,,,,,,,,,,463601,001,2024-05-12_00h41.30.327,creatingimagesNEW,2024.1.4,None,2024-05-12 00h41.36.819984 -0400,
"(0.25, 0)",b,0.0,0.0,,0,4,4,15,,,,,10.742615082999691,,,,,,,,,,,,,,,,10.73597433300165,12.061456124996766,,,,,,,,,,,,,,,,,463601,001,2024-05-12_00h41.30.327,creatingimagesNEW,2024.1.4,None,2024-05-12 00h41.36.819984 -0400,
"(-0.1875, -0.1875)",g,0.0,"(-0.1875, 0.1875) ",,0,5,5,13,,,,,12.068179124995368,,,,,,,,,,,,,,,,12.061615375001566,13.029473582995706,,,,,,,,,,,,,,,,,463601,001,2024-05-12_00h41.30.327,creatingimagesNEW,2024.1.4,None,2024-05-12 00h41.36.819984 -0400,
"(0.25, 0)",g,0.0,0.0,,0,6,6,2,,,,,13.036082665988943,,,,,,,,,,,,,,,,13.029630124990945,13.997665749993757,,,,,,,,,,,,,,,,,463601,001,2024-05-12_00h41.30.327,creatingimagesNEW,2024.1.4,None,2024-05-12 00h41.36.819984 -0400,
"(-0.25, 0)",b,0.0,0.0,,0,7,7,17,,,,,14.004008124989923,,,,,,,,,,,,,,,,13.997818541000015,14.965318832997582,,,,,,,,,,,,,,,,,463601,001,2024-05-12_00h41.30.327,creatingimagesNEW,2024.1.4,None,2024-05-12 00h41.36.819984 -0400,
"(-0.25, 0)",g,0.0,"(0.1875, 0.1875)",,0,8,8,14,,,,,14.971660540992161,,,,,,,,,,,,,,,,14.965475290999166,16.13315379100095,,,,,,,,,,,,,,,,,463601,001,2024-05-12_00h41.30.327,creatingimagesNEW,2024.1.4,None,2024-05-12 00h41.36.819984 -0400,
"(0.25, 0)",g,"(-0.1875, -0.1875)",0.0,,0,9,9,6,,,,,16.139410332994885,,,,,,,,,,,,,,,,16.133315165992826,17.100560874998337,,,,,,,,,,,,,,,,,463601,001,2024-05-12_00h41.30.327,creatingimagesNEW,2024.1.4,None,2024-05-12 00h41.36.819984 -0400,
"(-0.25, 0)",r,0.0,0.0,,0,10,10,5,,,,,17.106891916002496,,,,,,,,,,,,,,,,17.10071779099235,17.96839362499304,,,,,,,,,,,,,,,,,463601,001,2024-05-12_00h41.30.327,creatingimagesNEW,2024.1.4,None,2024-05-12 00h41.36.819984 -0400,
"(0.1875, 0.1875)",r,0.0,0.0,,0,11,11,10,,,,,17.974741208003252,,,,,,,,,,,,,,,,17.968551582991495,19.336717874990427,,,,,,,,,,,,,,,,,463601,001,2024-05-12_00h41.30.327,creatingimagesNEW,2024.1.4,None,2024-05-12 00h41.36.819984 -0400,
"(0, 0.25)",b,0.0,"(0, -0.25)",,0,12,12,18,,,,,19.343431916000554,,,,,,,,,,,,,,,,19.336889040991082,20.205002082991996,,,,,,,,,,,,,,,,,463601,001,2024-05-12_00h41.30.327,creatingimagesNEW,2024.1.4,None,2024-05-12 00h41.36.819984 -0400,
"(0, 0.25)",r,0.0,0.0,,0,13,13,9,,,,,20.21156191600312,,,,,,,,,,,,,,,,20.205161915990175,21.072642040991923,,,,,,,,,,,,,,,,,463601,001,2024-05-12_00h41.30.327,creatingimagesNEW,2024.1.4,None,2024-05-12 00h41.36.819984 -0400,
"(0.1875, 0.1875)",b,0.0,"(-0.1875, -0.1875)",,0,14,14,19,,,,,21.07894820799993,,,,,,,,,,,,,,,,21.072801665999577,22.040771165993647,,,,,,,,,,,,,,,,,463601,001,2024-05-12_00h41.30.327,creatingimagesNEW,2024.1.4,None,2024-05-12 00h41.36.819984 -0400,
"(0.1875, -0.1875)",g,0.0,"(0.25, 0)",,0,15,15,12,,,,,22.047178749999148,,,,,,,,,,,,,,,,22.040933625001344,23.008746082996367,,,,,,,,,,,,,,,,,463601,001,2024-05-12_00h41.30.327,creatingimagesNEW,2024.1.4,None,2024-05-12 00h41.36.819984 -0400,
"(0.1875, 0.1875)",g,0.0,0.0,,0,16,16,1,,,,,23.015087583000422,,,,,,,,,,,,,,,,23.008899166001356,23.97720720799407,,,,,,,,,,,,,,,,,463601,001,2024-05-12_00h41.30.327,creatingimagesNEW,2024.1.4,None,2024-05-12 00h41.36.819984 -0400,
"(0, 0.25)",g,0.0,0.0,,0,17,17,0,,,,,23.983512624996365,,,,,,,,,,,,,,,,23.977366708000773,25.14542266599892,,,,,,,,,,,,,,,,,463601,001,2024-05-12_00h41.30.327,creatingimagesNEW,2024.1.4,None,2024-05-12 00h41.36.819984 -0400,
"(0.25, 0)",b,0.0,"(0.1875, -0.1875)",,0,18,18,20,,,,,25.15193504099443,,,,,,,,,,,,,,,,25.14558658299211,26.413441874989076,,,,,,,,,,,,,,,,,463601,001,2024-05-12_00h41.30.327,creatingimagesNEW,2024.1.4,None,2024-05-12 00h41.36.819984 -0400,
"(0.1875, -0.1875)",r,0.0,0.0,,0,19,19,3,,,,,26.42005283299659,,,,,,,,,,,,,,,,26.413603875000263,27.281233790999977,,,,,,,,,,,,,,,,,463601,001,2024-05-12_00h41.30.327,creatingimagesNEW,2024.1.4,None,2024-05-12 00h41.36.819984 -0400,
"(-0.25, 0)",g,"(0.25, 0)",0.0,,0,20,20,8,,,,,27.287964957999066,,,,,,,,,,,,,,,,27.28139404099784,28.249324832999264,,,,,,,,,,,,,,,,,463601,001,2024-05-12_00h41.30.327,creatingimagesNEW,2024.1.4,None,2024-05-12 00h41.36.819984 -0400,
"(0.1875, 0.1875)",b,0.0,"(-0.1875, -0.1875)",,1,0,21,19,,,,,28.25602158300171,,,,,,,,,,,,,,,,28.249484457992367,29.116860665992135,,,,,,,,,,,,,,,,,463601,001,2024-05-12_00h41.30.327,creatingimagesNEW,2024.1.4,None,2024-05-12 00h41.36.819984 -0400,
"(0, 0.25)",g,0.0,0.0,,1,1,22,0,,,,,29.123293208001996,,,,,,,,,,,,,,,,29.117021625002963,29.884682707997854,,,,,,,,,,,,,,,,,463601,001,2024-05-12_00h41.30.327,creatingimagesNEW,2024.1.4,None,2024-05-12 00h41.36.819984 -0400,
"(-0.1875, 0.1875)",b,0.0,0.0,,1,2,23,16,,,,,29.891090749995783,,,,,,,,,,,,,,,,29.884849333000602,30.852638957992895,,,,,,,,,,,,,,,,,463601,001,2024-05-12_00h41.30.327,creatingimagesNEW,2024.1.4,None,2024-05-12 00h41.36.819984 -0400,
"(-0.25, 0)",r,0.0,0.0,,1,3,24,5,,,,,30.859121207991848,,,,,,,,,,,,,,,,30.85279391599761,31.820227165997494,,,,,,,,,,,,,,,,,463601,001,2024-05-12_00h41.30.327,creatingimagesNEW,2024.1.4,None,2024-05-12 00h41.36.819984 -0400,
"(-0.25, 0)",g,0.0,"(0.1875, 0.1875)",,1,4,25,14,,,,,31.82691958299256,,,,,,,,,,,,,,,,31.820379208002123,32.988354832996265,,,,,,,,,,,,,,,,,463601,001,2024-05-12_00h41.30.327,creatingimagesNEW,2024.1.4,None,2024-05-12 00h41.36.819984 -0400,
"(0.1875, 0.1875)",g,0.0,0.0,,1,5,26,1,,,,,32.994964208002784,,,,,,,,,,,,,,,,32.98851574999571,33.95624499999394,,,,,,,,,,,,,,,,,463601,001,2024-05-12_00h41.30.327,creatingimagesNEW,2024.1.4,None,2024-05-12 00h41.36.819984 -0400,
"(0, 0.25)",b,0.0,"(0, -0.25)",,1,6,27,18,,,,,33.96284320799168,,,,,,,,,,,,,,,,33.95639912500337,35.22452295800031,,,,,,,,,,,,,,,,,463601,001,2024-05-12_00h41.30.327,creatingimagesNEW,2024.1.4,None,2024-05-12 00h41.36.819984 -0400,
"(0.25, 0)",b,0.0,0.0,,1,7,28,15,,,,,35.23114370799158,,,,,,,,,,,,,,,,35.224683540989645,36.59369266599242,,,,,,,,,,,,,,,,,463601,001,2024-05-12_00h41.30.327,creatingimagesNEW,2024.1.4,None,2024-05-12 00h41.36.819984 -0400,
"(0.1875, -0.1875)",r,0.0,0.0,,1,8,29,3,,,,,36.60022820800077,,,,,,,,,,,,,,,,36.59385583299445,37.460837582999375,,,,,,,,,,,,,,,,,463601,001,2024-05-12_00h41.30.327,creatingimagesNEW,2024.1.4,None,2024-05-12 00h41.36.819984 -0400,
"(0.25, 0)",b,0.0,"(0.1875, -0.1875)",,1,9,30,20,,,,,37.46738474999438,,,,,,,,,,,,,,,,37.46099983299791,38.62921162499697,,,,,,,,,,,,,,,,,463601,001,2024-05-12_00h41.30.327,creatingimagesNEW,2024.1.4,None,2024-05-12 00h41.36.819984 -0400,
"(0.1875, 0.1875)",r,0.0,0.0,,1,10,31,10,,,,,38.63585041600163,,,,,,,,,,,,,,,,38.62937583299936,39.49746199999936,,,,,,,,,,,,,,,,,463601,001,2024-05-12_00h41.30.327,creatingimagesNEW,2024.1.4,None,2024-05-12 00h41.36.819984 -0400,
"(-0.25, 0)",b,0.0,0.0,,1,11,32,17,,,,,39.503969915997004,,,,,,,,,,,,,,,,39.49762675000238,41.16601916599029,,,,,,,,,,,,,,,,,463601,001,2024-05-12_00h41.30.327,creatingimagesNEW,2024.1.4,None,2024-05-12 00h41.36.819984 -0400,
"(0.25, 0)",g,0.0,0.0,,1,12,33,2,,,,,41.17463554099959,,,,,,,,,,,,,,,,41.16617512499215,42.0356845829956,,,,,,,,,,,,,,,,,463601,001,2024-05-12_00h41.30.327,creatingimagesNEW,2024.1.4,None,2024-05-12 00h41.36.819984 -0400,
"(-0.1875, -0.1875)",g,0.0,"(-0.1875, 0.1875) ",,1,13,34,13,,,,,42.04225179099012,,,,,,,,,,,,,,,,42.03584291599691,42.90341637498932,,,,,,,,,,,,,,,,,463601,001,2024-05-12_00h41.30.327,creatingimagesNEW,2024.1.4,None,2024-05-12 00h41.36.819984 -0400,
"(0, 0.25)",r,0.0,0.0,,1,14,35,9,,,,,42.90980212499562,,,,,,,,,,,,,,,,42.90358129100059,43.82963895799185,,,,,,,,,,,,,,,,,463601,001,2024-05-12_00h41.30.327,creatingimagesNEW,2024.1.4,None,2024-05-12 00h41.36.819984 -0400,
"(0.1875, -0.1875)",g,0.0,"(0.25, 0)",,1,15,36,12,,,,,43.83591933299613,,,,,,,,,,,,,,,,43.829795249999734,44.797220874999766,,,,,,,,,,,,,,,,,463601,001,2024-05-12_00h41.30.327,creatingimagesNEW,2024.1.4,None,2024-05-12 00h41.36.819984 -0400,
"(-0.25, 0)",g,"(0.25, 0)",0.0,,1,16,37,8,,,,,44.80384341599711,,,,,,,,,,,,,,,,44.79738449999422,45.965711374999955,,,,,,,,,,,,,,,,,463601,001,2024-05-12_00h41.30.327,creatingimagesNEW,2024.1.4,None,2024-05-12 00h41.36.819984 -0400,
"(0.25, 0)",g,"(-0.1875, -0.1875)",0.0,,1,17,38,6,,,,,45.971899540993036,,,,,,,,,,,,,,,,45.965870582993375,47.03281904099276,,,,,,,,,,,,,,,,,463601,001,2024-05-12_00h41.30.327,creatingimagesNEW,2024.1.4,None,2024-05-12 00h41.36.819984 -0400,
"(-0.1875, 0.1875)",g,"(-0.25, 0)",0.0,,1,18,39,7,,,,,47.039098915993236,,,,,,,,,,,,,,,,47.032973583001876,48.10034150000138,,,,,,,,,,,,,,,,,463601,001,2024-05-12_00h41.30.327,creatingimagesNEW,2024.1.4,None,2024-05-12 00h41.36.819984 -0400,
"(-0.1875, -0.1875)",r,0.0,0.0,,1,19,40,4,,,,,48.10698816599324,,,,,,,,,,,,,,,,48.10050833299465,49.068790374993114,,,,,,,,,,,,,,,,,463601,001,2024-05-12_00h41.30.327,creatingimagesNEW,2024.1.4,None,2024-05-12 00h41.36.819984 -0400,
"(0.25, 0)",r,0.0,0.0,,1,20,41,11,,,,,49.0752192499931,,,,,,,,,,,,,,,,49.068942790996516,50.03599579099682,,,,,,,,,,,,,,,,,463601,001,2024-05-12_00h41.30.327,creatingimagesNEW,2024.1.4,None,2024-05-12 00h41.36.819984 -0400,
"(-0.25, 0)",g,"(0.25, 0)",0.0,,2,0,42,8,,,,,50.042247874996974,,,,,,,,,,,,,,,,50.036145666002994,51.30324004100112,,,,,,,,,,,,,,,,,463601,001,2024-05-12_00h41.30.327,creatingimagesNEW,2024.1.4,None,2024-05-12 00h41.36.819984 -0400,
"(0.25, 0)",b,0.0,0.0,,2,1,43,15,,,,,51.30983345799905,,,,,,,,,,,,,,,,51.30339408299187,52.170442332993844,,,,,,,,,,,,,,,,,463601,001,2024-05-12_00h41.30.327,creatingimagesNEW,2024.1.4,None,2024-05-12 00h41.36.819984 -0400,
"(-0.1875, 0.1875)",g,"(-0.25, 0)",0.0,,2,2,44,7,,,,,52.1766187500034,,,,,,,,,,,,,,,,52.17059504099598,53.03700683299394,,,,,,,,,,,,,,,,,463601,001,2024-05-12_00h41.30.327,creatingimagesNEW,2024.1.4,None,2024-05-12 00h41.36.819984 -0400,
"(0.1875, 0.1875)",g,0.0,0.0,,2,3,45,1,,,,,53.04335170799459,,,,,,,,,,,,,,,,53.03716349999013,54.10429520800244,,,,,,,,,,,,,,,,,463601,001,2024-05-12_00h41.30.327,creatingimagesNEW,2024.1.4,None,2024-05-12 00h41.36.819984 -0400,
"(-0.1875, 0.1875)",b,0.0,0.0,,2,4,46,16,,,,,54.111165915994206,,,,,,,,,,,,,,,,54.104450915998314,55.1724847079895,,,,,,,,,,,,,,,,,463601,001,2024-05-12_00h41.30.327,creatingimagesNEW,2024.1.4,None,2024-05-12 00h41.36.819984 -0400,
"(-0.25, 0)",b,0.0,0.0,,2,5,47,17,,,,,55.179093083002954,,,,,,,,,,,,,,,,55.17264691599121,56.140311415991164,,,,,,,,,,,,,,,,,463601,001,2024-05-12_00h41.30.327,creatingimagesNEW,2024.1.4,None,2024-05-12 00h41.36.819984 -0400,
"(0.1875, -0.1875)",g,0.0,"(0.25, 0)",,2,6,48,12,,,,,56.1469182909932,,,,,,,,,,,,,,,,56.14047183300136,57.408387499992386,,,,,,,,,,,,,,,,,463601,001,2024-05-12_00h41.30.327,creatingimagesNEW,2024.1.4,None,2024-05-12 00h41.36.819984 -0400,
"(0.1875, 0.1875)",r,0.0,0.0,,2,7,49,10,,,,,57.41481337499863,,,,,,,,,,,,,,,,57.40854641600163,58.37605454098957,,,,,,,,,,,,,,,,,463601,001,2024-05-12_00h41.30.327,creatingimagesNEW,2024.1.4,None,2024-05-12 00h41.36.819984 -0400,
"(0, 0.25)",b,0.0,"(0, -0.25)",,2,8,50,18,,,,,58.38247425000009,,,,,,,,,,,,,,,,58.37622166599613,59.2438367499999,,,,,,,,,,,,,,,,,463601,001,2024-05-12_00h41.30.327,creatingimagesNEW,2024.1.4,None,2024-05-12 00h41.36.819984 -0400,
"(-0.25, 0)",g,0.0,"(0.1875, 0.1875)",,2,9,51,14,,,,,59.25068120799551,,,,,,,,,,,,,,,,59.24398949999886,60.31163891599863,,,,,,,,,,,,,,,,,463601,001,2024-05-12_00h41.30.327,creatingimagesNEW,2024.1.4,None,2024-05-12 00h41.36.819984 -0400,
"(-0.25, 0)",r,0.0,0.0,,2,10,52,5,,,,,60.31795324999257,,,,,,,,,,,,,,,,60.31179616600275,61.17868458299199,,,,,,,,,,,,,,,,,463601,001,2024-05-12_00h41.30.327,creatingimagesNEW,2024.1.4,None,2024-05-12 00h41.36.819984 -0400,
"(0, 0.25)",g,0.0,0.0,,2,11,53,0,,,,,61.18511295800272,,,,,,,,,,,,,,,,61.17884337498981,62.24600308299705,,,,,,,,,,,,,,,,,463601,001,2024-05-12_00h41.30.327,creatingimagesNEW,2024.1.4,None,2024-05-12 00h41.36.819984 -0400,
"(0.1875, 0.1875)",b,0.0,"(-0.1875, -0.1875)",,2,12,54,19,,,,,62.252112707996275,,,,,,,,,,,,,,,,62.246158290989115,63.41348554099386,,,,,,,,,,,,,,,,,463601,001,2024-05-12_00h41.30.327,creatingimagesNEW,2024.1.4,None,2024-05-12 00h41.36.819984 -0400,
"(0, 0.25)",r,0.0,0.0,,2,13,55,9,,,,,63.42005729099037,,,,,,,,,,,,,,,,63.41364316600084,64.48156899999594,,,,,,,,,,,,,,,,,463601,001,2024-05-12_00h41.30.327,creatingimagesNEW,2024.1.4,None,2024-05-12 00h41.36.819984 -0400,
"(0.25, 0)",g,0.0,0.0,,2,14,56,2,,,,,64.48812220800028,,,,,,,,,,,,,,,,64.48173329100246,65.64940670799115,,,,,,,,,,,,,,,,,463601,001,2024-05-12_00h41.30.327,creatingimagesNEW,2024.1.4,None,2024-05-12 00h41.36.819984 -0400,
"(-0.1875, -0.1875)",r,0.0,0.0,,2,15,57,4,,,,,65.65615512499062,,,,,,,,,,,,,,,,65.64957649999997,66.71797154100204,,,,,,,,,,,,,,,,,463601,001,2024-05-12_00h41.30.327,creatingimagesNEW,2024.1.4,None,2024-05-12 00h41.36.819984 -0400,
"(0.25, 0)",r,0.0,0.0,,2,16,58,11,,,,,66.72469845799787,,,,,,,,,,,,,,,,66.71815579099348,67.88599195799907,,,,,,,,,,,,,,,,,463601,001,2024-05-12_00h41.30.327,creatingimagesNEW,2024.1.4,None,2024-05-12 00h41.36.819984 -0400,
"(-0.1875, -0.1875)",g,0.0,"(-0.1875, 0.1875) ",,2,17,59,13,,,,,67.89265316599631,,,,,,,,,,,,,,,,67.88616004100186,68.75433837500168,,,,,,,,,,,,,,,,,463601,001,2024-05-12_00h41.30.327,creatingimagesNEW,2024.1.4,None,2024-05-12 00h41.36.819984 -0400,
"(0.1875, -0.1875)",r,0.0,0.0,,2,18,60,3,,,,,68.76084291600273,,,,,,,,,,,,,,,,68.75449541599664,69.92241458299395,,,,,,,,,,,,,,,,,463601,001,2024-05-12_00h41.30.327,creatingimagesNEW,2024.1.4,None,2024-05-12 00h41.36.819984 -0400,
"(0.25, 0)",b,0.0,"(0.1875, -0.1875)",,2,19,61,20,,,,,69.92902420800237,,,,,,,,,,,,,,,,69.92257412499748,70.89072949999536,,,,,,,,,,,,,,,,,463601,001,2024-05-12_00h41.30.327,creatingimagesNEW,2024.1.4,None,2024-05-12 00h41.36.819984 -0400,
"(0.25, 0)",g,"(-0.1875, -0.1875)",0.0,,2,20,62,6,,,,,70.89730633299041,,,,,,,,,,,,,,,,70.89089212499675,71.15868845800287,,,,,,,,,,,,,,,,,463601,001,2024-05-12_00h41.30.327,creatingimagesNEW,2024.1.4,None,2024-05-12 00h41.36.819984 -0400,
,,,,,,,,,,,,,,,,,,,,,,,,,,,,,,,71.15875133300142,71.16533520800294,72.15561170798901,72.2242201659974,space,0.061040583008434623,None,,,,,,,,,,463601,001,2024-05-12_00h41.30.327,creatingimagesNEW,2024.1.4,None,2024-05-12 00h41.36.819984 -0400,
"(0, 0.25)",g,,0.0,"(-0.1875, -0.1875)",,,,,0,0,0,8,72.26131970799179,,,,,,,,,,,,,,,,,,,,,,,,,72.249251250003,73.32375254099315,,,,,,,,463601,001,2024-05-12_00h41.30.327,creatingimagesNEW,2024.1.4,None,2024-05-12 00h41.36.819984 -0400,
"(-0.1875, 0.1875)",g,,"(0.25, 0)",0.0,,,,,0,1,1,39,73.33048904099269,,,,,,,,,,,,,,,,,,,,,,,,,73.32391987499432,74.79312962500262,,,,,,,,463601,001,2024-05-12_00h41.30.327,creatingimagesNEW,2024.1.4,None,2024-05-12 00h41.36.819984 -0400,
"(-0.1875, 0.1875)",r,,0.0,"(0.25, 0)",,,,,0,2,2,31,74.80264008299855,,,,,,,,,,,,,,,,,,,,,,,,,74.79329545800283,76.065084707996,,,,,,,,463601,001,2024-05-12_00h41.30.327,creatingimagesNEW,2024.1.4,None,2024-05-12 00h41.36.819984 -0400,
"(-0.1875, 0.1875)",g,,0.0,"(0.25, 0)",,,,,0,3,3,15,76.07191050000256,,,,,,,,,,,,,,,,,,,,,,,,,76.06524708299548,77.83527354100079,,,,,,,,463601,001,2024-05-12_00h41.30.327,creatingimagesNEW,2024.1.4,None,2024-05-12 00h41.36.819984 -0400,
"(0.1875, 0.1875)",b,,0.0,0.0,,,,,0,4,4,41,77.8431639999908,,,,,,,,,,,,,,,,,,,,,,,,,77.83547383299447,79.1046532499895,,,,,,,,463601,001,2024-05-12_00h41.30.327,creatingimagesNEW,2024.1.4,None,2024-05-12 00h41.36.819984 -0400,
"(0.1875, -0.1875)",b,,0.0,0.0,,,,,0,5,5,43,79.11140487500234,,,,,,,,,,,,,,,,,,,,,,,,,79.10481216599874,80.27249054099957,,,,,,,,463601,001,2024-05-12_00h41.30.327,creatingimagesNEW,2024.1.4,None,2024-05-12 00h41.36.819984 -0400,
"(0.1875, 0.1875)",g,,"(0, -0.25)",0.0,,,,,0,6,6,33,80.27910129100201,,,,,,,,,,,,,,,,,,,,,,,,,80.27265258299303,82.04085649999615,,,,,,,,463601,001,2024-05-12_00h41.30.327,creatingimagesNEW,2024.1.4,None,2024-05-12 00h41.36.819984 -0400,
"(0.1875, -0.1875)",b,,"(-0.25, 0)",0.0,,,,,0,7,7,51,82.048699166,,,,,,,,,,,,,,,,,,,,,,,,,82.04101999998966,83.51041962500312,,,,,,,,463601,001,2024-05-12_00h41.30.327,creatingimagesNEW,2024.1.4,None,2024-05-12 00h41.36.819984 -0400,
"(-0.25, 0)",g,,0.0,"(0.1875, -0.1875)",,,,,0,8,8,14,83.51735866599483,,,,,,,,,,,,,,,,,,,,,,,,,83.5105851249973,84.78266608300328,,,,,,,,463601,001,2024-05-12_00h41.30.327,creatingimagesNEW,2024.1.4,None,2024-05-12 00h41.36.819984 -0400,
"(0.25, 0)",g,,"(-0.1875, 0.1875)",0.0,,,,,0,9,9,34,84.78980008300277,,,,,,,,,,,,,,,,,,,,,,,,,84.78282841599139,85.85147191600117,,,,,,,,463601,001,2024-05-12_00h41.30.327,creatingimagesNEW,2024.1.4,None,2024-05-12 00h41.36.819984 -0400,
"(-0.1875, -0.1875)",b,,0.0,0.0,,,,,0,10,10,45,85.85824616599712,,,,,,,,,,,,,,,,,,,,,,,,,85.85163241600094,87.82083195800078,,,,,,,,463601,001,2024-05-12_00h41.30.327,creatingimagesNEW,2024.1.4,None,2024-05-12 00h41.36.819984 -0400,
"(-0.1875, -0.1875)",g,,0.0,"(0, 0.25)",,,,,0,11,11,13,87.82807795799454,,,,,,,,,,,,,,,,,,,,,,,,,87.82099545799429,89.991475791001,,,,,,,,463601,001,2024-05-12_00h41.30.327,creatingimagesNEW,2024.1.4,None,2024-05-12 00h41.36.819984 -0400,
"(0.1875, 0.1875)",g,,0.0,"(0, -0.25)",,,,,0,12,12,9,89.9987656250014,,,,,,,,,,,,,,,,,,,,,,,,,89.99163870800112,91.56101325000054,,,,,,,,463601,001,2024-05-12_00h41.30.327,creatingimagesNEW,2024.1.4,None,2024-05-12 00h41.36.819984 -0400,
"(0, 0.25)",g,,"(-0.1875, -0.1875)",0.0,,,,,0,13,13,32,91.56919079099316,,,,,,,,,,,,,,,,,,,,,,,,,91.56118270799925,93.03193387499778,,,,,,,,463601,001,2024-05-12_00h41.30.327,creatingimagesNEW,2024.1.4,None,2024-05-12 00h41.36.819984 -0400,
"(0.1875, -0.1875)",g,,0.0,0.0,,,,,0,14,14,3,93.0388069999899,,,,,,,,,,,,,,,,,,,,,,,,,93.03209366599913,94.40025491599226,,,,,,,,463601,001,2024-05-12_00h41.30.327,creatingimagesNEW,2024.1.4,None,2024-05-12 00h41.36.819984 -0400,
"(0.25, 0)",r,,0.0,0.0,,,,,0,15,15,18,94.4098671660031,,,,,,,,,,,,,,,,,,,,,,,,,94.40041508300055,95.57232283300254,,,,,,,,463601,001,2024-05-12_00h41.30.327,creatingimagesNEW,2024.1.4,None,2024-05-12 00h41.36.819984 -0400,
"(-0.25, 0)",b,,"(0.1875, -0.1875)",0.0,,,,,0,16,16,54,95.57936733298993,,,,,,,,,,,,,,,,,,,,,,,,,95.57248629099922,96.64188441599254,,,,,,,,463601,001,2024-05-12_00h41.30.327,creatingimagesNEW,2024.1.4,None,2024-05-12 00h41.36.819984 -0400,
"(-0.25, 0)",g,,0.0,0.0,,,,,0,17,17,6,96.64859058299044,,,,,,,,,,,,,,,,,,,,,,,,,96.64204554099706,97.71016883300035,,,,,,,,463601,001,2024-05-12_00h41.30.327,creatingimagesNEW,2024.1.4,None,2024-05-12 00h41.36.819984 -0400,
"(0.25, 0)",r,,0.0,"(-0.1875, 0.1875)",,,,,0,18,18,26,97.71711462498934,,,,,,,,,,,,,,,,,,,,,,,,,97.71034649999638,99.07848737499444,,,,,,,,463601,001,2024-05-12_00h41.30.327,creatingimagesNEW,2024.1.4,None,2024-05-12 00h41.36.819984 -0400,
"(-0.25, 0)",r,,0.0,0.0,,,,,0,19,19,22,99.08541858299577,,,,,,,,,,,,,,,,,,,,,,,,,99.07866574999935,100.24801866599591,,,,,,,,463601,001,2024-05-12_00h41.30.327,creatingimagesNEW,2024.1.4,None,2024-05-12 00h41.36.819984 -0400,
"(-0.1875, -0.1875)",b,,"(0, 0.25)",0.0,,,,,0,20,20,53,100.25488125000265,,,,,,,,,,,,,,,,,,,,,,,,,100.24818170799699,101.71678191599494,,,,,,,,463601,001,2024-05-12_00h41.30.327,creatingimagesNEW,2024.1.4,None,2024-05-12 00h41.36.819984 -0400,
"(0.25, 0)",g,,0.0,0.0,,,,,0,21,21,2,101.72643083299045,,,,,,,,,,,,,,,,,,,,,,,,,101.71693883299304,102.88752074999502,,,,,,,,463601,001,2024-05-12_00h41.30.327,creatingimagesNEW,2024.1.4,None,2024-05-12 00h41.36.819984 -0400,
"(0.1875, 0.1875)",r,,0.0,0.0,,,,,0,22,22,17,102.89423420799721,,,,,,,,,,,,,,,,,,,,,,,,,102.8876774579985,103.85565029099234,,,,,,,,463601,001,2024-05-12_00h41.30.327,creatingimagesNEW,2024.1.4,None,2024-05-12 00h41.36.819984 -0400,
"(0, -0.25)",b,,0.0,0.0,,,,,0,23,23,44,103.86222299998917,,,,,,,,,,,,,,,,,,,,,,,,,103.85580545799166,105.02492962499673,,,,,,,,463601,001,2024-05-12_00h41.30.327,creatingimagesNEW,2024.1.4,None,2024-05-12 00h41.36.819984 -0400,
"(0, -0.25)",g,,"(0.1875, 0.1875)",0.0,,,,,0,24,24,36,105.03183304099366,,,,,,,,,,,,,,,,,,,,,,,,,105.02510250000341,106.69608395799878,,,,,,,,463601,001,2024-05-12_00h41.30.327,creatingimagesNEW,2024.1.4,None,2024-05-12 00h41.36.819984 -0400,
"(0.25, 0)",b,,"(-0.1875, 0.1875)",0.0,,,,,0,25,25,50,106.70525116600038,,,,,,,,,,,,,,,,,,,,,,,,,106.69624491599097,108.06740749999881,,,,,,,,463601,001,2024-05-12_00h41.30.327,creatingimagesNEW,2024.1.4,None,2024-05-12 00h41.36.819984 -0400,
"(0, 0.25)",r,,0.0,"(-0.1875, -0.1875)",,,,,0,26,26,24,108.07436966599198,,,,,,,,,,,,,,,,,,,,,,,,,108.06757041599485,109.23656145799032,,,,,,,,463601,001,2024-05-12_00h41.30.327,creatingimagesNEW,2024.1.4,None,2024-05-12 00h41.36.819984 -0400,
"(0, -0.25)",g,,0.0,"(0.1875, 0.1875)",,,,,0,27,27,12,109.24341108299268,,,,,,,,,,,,,,,,,,,,,,,,,109.23674666599254,110.90553491598985,,,,,,,,463601,001,2024-05-12_00h41.30.327,creatingimagesNEW,2024.1.4,None,2024-05-12 00h41.36.819984 -0400,
"(-0.25, 0)",b,,0.0,0.0,,,,,0,28,28,46,110.91479366600106,,,,,,,,,,,,,,,,,,,,,,,,,110.9057015409926,111.9769848750002,,,,,,,,463601,001,2024-05-12_00h41.30.327,creatingimagesNEW,2024.1.4,None,2024-05-12 00h41.36.819984 -0400,
"(-0.1875, -0.1875)",r,,0.0,0.0,,,,,0,29,29,21,111.98341370800335,,,,,,,,,,,,,,,,,,,,,,,,,111.97714716599148,113.04508079099469,,,,,,,,463601,001,2024-05-12_00h41.30.327,creatingimagesNEW,2024.1.4,None,2024-05-12 00h41.36.819984 -0400,
"(0.1875, 0.1875)",g,,0.0,0.0,,,,,0,30,30,1,113.05177283300145,,,,,,,,,,,,,,,,,,,,,,,,,113.04523637499369,114.21466837500338,,,,,,,,463601,001,2024-05-12_00h41.30.327,creatingimagesNEW,2024.1.4,None,2024-05-12 00h41.36.819984 -0400,
"(-0.1875, -0.1875)",r,,0.0,"(0, 0.25)",,,,,0,31,31,29,114.22159499999543,,,,,,,,,,,,,,,,,,,,,,,,,114.21482895799272,115.68322224999429,,,,,,,,463601,001,2024-05-12_00h41.30.327,creatingimagesNEW,2024.1.4,None,2024-05-12 00h41.36.819984 -0400,
"(0.1875, 0.1875)",r,,0.0,"(0, -0.25)",,,,,0,32,32,25,115.69012612500228,,,,,,,,,,,,,,,,,,,,,,,,,115.68338458299695,117.1536670409987,,,,,,,,463601,001,2024-05-12_00h41.30.327,creatingimagesNEW,2024.1.4,None,2024-05-12 00h41.36.819984 -0400,
"(0.1875, 0.1875)",b,,"(0, -0.25)",0.0,,,,,0,33,33,49,117.16090775000339,,,,,,,,,,,,,,,,,,,,,,,,,117.15383599999768,118.52277279099508,,,,,,,,463601,001,2024-05-12_00h41.30.327,creatingimagesNEW,2024.1.4,None,2024-05-12 00h41.36.819984 -0400,
"(0, 0.25)",r,,0.0,0.0,,,,,0,34,34,16,118.53037479099294,,,,,,,,,,,,,,,,,,,,,,,,,118.5229368750006,119.79181166600029,,,,,,,,463601,001,2024-05-12_00h41.30.327,creatingimagesNEW,2024.1.4,None,2024-05-12 00h41.36.819984 -0400,
"(-0.1875, 0.1875)",g,,0.0,0.0,,,,,0,35,35,7,119.79841966599633,,,,,,,,,,,,,,,,,,,,,,,,,119.79197183299402,120.90264445799403,,,,,,,,463601,001,2024-05-12_00h41.30.327,creatingimagesNEW,2024.1.4,None,2024-05-12 00h41.36.819984 -0400,
"(0.1875, -0.1875)",g,,0.0,"(-0.25, 0)",,,,,0,36,36,11,120.90918854100164,,,,,,,,,,,,,,,,,,,,,,,,,120.90281108299678,122.57187524999608,,,,,,,,463601,001,2024-05-12_00h41.30.327,creatingimagesNEW,2024.1.4,None,2024-05-12 00h41.36.819984 -0400,
"(0.1875, -0.1875)",g,,"(-0.25, 0)",0.0,,,,,0,37,37,35,122.57916108299105,,,,,,,,,,,,,,,,,,,,,,,,,122.57203820798895,123.94143504099338,,,,,,,,463601,001,2024-05-12_00h41.30.327,creatingimagesNEW,2024.1.4,None,2024-05-12 00h41.36.819984 -0400,
"(-0.25, 0)",r,,0.0,"(0.1875, -0.1875)",,,,,0,38,38,30,123.9483259999979,,,,,,,,,,,,,,,,,,,,,,,,,123.94159508300072,125.21074020800006,,,,,,,,463601,001,2024-05-12_00h41.30.327,creatingimagesNEW,2024.1.4,None,2024-05-12 00h41.36.819984 -0400,
"(0, -0.25)",r,,0.0,"(0.1875, 0.1875)",,,,,0,39,39,28,125.21764991599775,,,,,,,,,,,,,,,,,,,,,,,,,125.21090049999475,126.48051104099432,,,,,,,,463601,001,2024-05-12_00h41.30.327,creatingimagesNEW,2024.1.4,None,2024-05-12 00h41.36.819984 -0400,
"(-0.1875, 0.1875)",r,,0.0,0.0,,,,,0,40,40,23,126.48743799999647,,,,,,,,,,,,,,,,,,,,,,,,,126.48067966599774,127.75012416599202,,,,,,,,463601,001,2024-05-12_00h41.30.327,creatingimagesNEW,2024.1.4,None,2024-05-12 00h41.36.819984 -0400,
"(-0.1875, -0.1875)",g,,"(0, 0.25)",0.0,,,,,0,41,41,37,127.75691662500321,,,,,,,,,,,,,,,,,,,,,,,,,127.75028387499333,129.61926700000186,,,,,,,,463601,001,2024-05-12_00h41.30.327,creatingimagesNEW,2024.1.4,None,2024-05-12 00h41.36.819984 -0400,
"(0.25, 0)",g,,0.0,"(-0.1875, 0.1875)",,,,,0,42,42,10,129.62649641599273,,,,,,,,,,,,,,,,,,,,,,,,,129.619433749991,131.2892580829939,,,,,,,,463601,001,2024-05-12_00h41.30.327,creatingimagesNEW,2024.1.4,None,2024-05-12 00h41.36.819984 -0400,
"(0, -0.25)",b,,"(0.1875, 0.1875)",0.0,,,,,0,43,43,52,131.29660354099178,,,,,,,,,,,,,,,,,,,,,,,,,131.2894218750007,132.85922908299835,,,,,,,,463601,001,2024-05-12_00h41.30.327,creatingimagesNEW,2024.1.4,None,2024-05-12 00h41.36.819984 -0400,
"(-0.1875, 0.1875)",b,,0.0,0.0,,,,,0,44,44,47,132.8665981249942,,,,,,,,,,,,,,,,,,,,,,,,,132.85938866599463,134.02915091600153,,,,,,,,463601,001,2024-05-12_00h41.30.327,creatingimagesNEW,2024.1.4,None,2024-05-12 00h41.36.819984 -0400,
"(0, 0.25)",b,,0.0,0.0,,,,,0,45,45,40,134.0355073749961,,,,,,,,,,,,,,,,,,,,,,,,,134.02931154100224,135.0976826249971,,,,,,,,463601,001,2024-05-12_00h41.30.327,creatingimagesNEW,2024.1.4,None,2024-05-12 00h41.36.819984 -0400,
"(0.1875, -0.1875)",r,,0.0,0.0,,,,,0,46,46,19,135.1040637499973,,,,,,,,,,,,,,,,,,,,,,,,,135.097834375003,136.2662490829971,,,,,,,,463601,001,2024-05-12_00h41.30.327,creatingimagesNEW,2024.1.4,None,2024-05-12 00h41.36.819984 -0400,
"(0, 0.25)",b,,"(-0.1875, -0.1875)",0.0,,,,,0,47,47,48,136.27317249999032,,,,,,,,,,,,,,,,,,,,,,,,,136.2664142499998,137.53578229100094,,,,,,,,463601,001,2024-05-12_00h41.30.327,creatingimagesNEW,2024.1.4,None,2024-05-12 00h41.36.819984 -0400,
"(-0.25, 0)",g,,"(0.1875, -0.1875)",0.0,,,,,0,48,48,38,137.5425649999961,,,,,,,,,,,,,,,,,,,,,,,,,137.5359461659973,139.20507508299488,,,,,,,,463601,001,2024-05-12_00h41.30.327,creatingimagesNEW,2024.1.4,None,2024-05-12 00h41.36.819984 -0400,
"(0.25, 0)",b,,0.0,0.0,,,,,0,49,49,42,139.2130365829944,,,,,,,,,,,,,,,,,,,,,,,,,139.2052359579975,140.77613324999402,,,,,,,,463601,001,2024-05-12_00h41.30.327,creatingimagesNEW,2024.1.4,None,2024-05-12 00h41.36.819984 -0400,
"(-0.1875, 0.1875)",b,,"(0.25, 0)",0.0,,,,,0,50,50,55,140.78387808299158,,,,,,,,,,,,,,,,,,,,,,,,,140.77630145799776,141.94508824999502,,,,,,,,463601,001,2024-05-12_00h41.30.327,creatingimagesNEW,2024.1.4,None,2024-05-12 00h41.36.819984 -0400,
"(-0.1875, -0.1875)",g,,0.0,0.0,,,,,0,51,51,5,141.95174266600225,,,,,,,,,,,,,,,,,,,,,,,,,141.9452505829977,143.1133477909898,,,,,,,,463601,001,2024-05-12_00h41.30.327,creatingimagesNEW,2024.1.4,None,2024-05-12 00h41.36.819984 -0400,
"(0, -0.25)",g,,0.0,0.0,,,,,0,52,52,4,143.120328332996,,,,,,,,,,,,,,,,,,,,,,,,,143.11350641598983,144.28237162499863,,,,,,,,463601,001,2024-05-12_00h41.30.327,creatingimagesNEW,2024.1.4,None,2024-05-12 00h41.36.819984 -0400,
"(0, -0.25)",r,,0.0,0.0,,,,,0,53,53,20,144.28936516599788,,,,,,,,,,,,,,,,,,,,,,,,,144.28253470799245,145.3508312079939,,,,,,,,463601,001,2024-05-12_00h41.30.327,creatingimagesNEW,2024.1.4,None,2024-05-12 00h41.36.819984 -0400,
"(0, 0.25)",g,,0.0,0.0,,,,,0,54,54,0,145.3574847909913,,,,,,,,,,,,,,,,,,,,,,,,,145.35099599999376,146.52002741600154,,,,,,,,463601,001,2024-05-12_00h41.30.327,creatingimagesNEW,2024.1.4,None,2024-05-12 00h41.36.819984 -0400,
"(0.1875, -0.1875)",r,,0.0,"(-0.25, 0)",,,,,0,55,55,27,146.52670741599286,,,,,,,,,,,,,,,,,,,,,,,,,146.52018595799746,147.68863216599857,,,,,,,,463601,001,2024-05-12_00h41.30.327,creatingimagesNEW,2024.1.4,None,2024-05-12 00h41.36.819984 -0400,
"(-0.1875, 0.1875)",g,,"(0.25, 0)",0.0,,,,,1,0,56,39,147.69514999999956,,,,,,,,,,,,,,,,,,,,,,,,,147.68879516600282,148.8575544579944,,,,,,,,463601,001,2024-05-12_00h41.30.327,creatingimagesNEW,2024.1.4,None,2024-05-12 00h41.36.819984 -0400,
"(-0.1875, 0.1875)",b,,"(0.25, 0)",0.0,,,,,1,1,57,55,148.8642606659996,,,,,,,,,,,,,,,,,,,,,,,,,148.85771420800302,151.92866424999374,,,,,,,,463601,001,2024-05-12_00h41.30.327,creatingimagesNEW,2024.1.4,None,2024-05-12 00h41.36.819984 -0400,
"(-0.25, 0)",g,,0.0,"(0.1875, -0.1875)",,,,,1,2,58,14,151.93674020799517,,,,,,,,,,,,,,,,,,,,,,,,,151.9288307079987,153.5995988749928,,,,,,,,463601,001,2024-05-12_00h41.30.327,creatingimagesNEW,2024.1.4,None,2024-05-12 00h41.36.819984 -0400,
"(-0.1875, 0.1875)",b,,0.0,0.0,,,,,1,3,59,47,153.60707179098972,,,,,,,,,,,,,,,,,,,,,,,,,153.59976141600055,154.7693354160001,,,,,,,,463601,001,2024-05-12_00h41.30.327,creatingimagesNEW,2024.1.4,None,2024-05-12 00h41.36.819984 -0400,
"(-0.25, 0)",r,,0.0,"(0.1875, -0.1875)",,,,,1,4,60,30,154.7760542499891,,,,,,,,,,,,,,,,,,,,,,,,,154.76949737498944,156.23843370800023,,,,,,,,463601,001,2024-05-12_00h41.30.327,creatingimagesNEW,2024.1.4,None,2024-05-12 00h41.36.819984 -0400,
"(0, 0.25)",b,,0.0,0.0,,,,,1,5,61,40,156.24762095799088,,,,,,,,,,,,,,,,,,,,,,,,,156.23859724999056,157.31069025000033,,,,,,,,463601,001,2024-05-12_00h41.30.327,creatingimagesNEW,2024.1.4,None,2024-05-12 00h41.36.819984 -0400,
"(0.25, 0)",g,,"(-0.1875, 0.1875)",0.0,,,,,1,6,62,34,157.31720099999802,,,,,,,,,,,,,,,,,,,,,,,,,157.3108518329973,158.77984083299816,,,,,,,,463601,001,2024-05-12_00h41.30.327,creatingimagesNEW,2024.1.4,None,2024-05-12 00h41.36.819984 -0400,
"(0, -0.25)",r,,0.0,"(0.1875, 0.1875)",,,,,1,7,63,28,158.7890429580002,,,,,,,,,,,,,,,,,,,,,,,,,158.77999612499843,159.8518397079897,,,,,,,,463601,001,2024-05-12_00h41.30.327,creatingimagesNEW,2024.1.4,None,2024-05-12 00h41.36.819984 -0400,
"(0, -0.25)",g,,0.0,"(0.1875, 0.1875)",,,,,1,8,64,12,159.85850445799588,,,,,,,,,,,,,,,,,,,,,,,,,159.85200574999908,161.52125833299942,,,,,,,,463601,001,2024-05-12_00h41.30.327,creatingimagesNEW,2024.1.4,None,2024-05-12 00h41.36.819984 -0400,
"(0, -0.25)",g,,0.0,0.0,,,,,1,9,65,4,161.5304840829922,,,,,,,,,,,,,,,,,,,,,,,,,161.5214140409953,162.69301916599215,,,,,,,,463601,001,2024-05-12_00h41.30.327,creatingimagesNEW,2024.1.4,None,2024-05-12 00h41.36.819984 -0400,
"(-0.1875, -0.1875)",g,,0.0,0.0,,,,,1,10,66,5,162.6996399579948,,,,,,,,,,,,,,,,,,,,,,,,,162.69318412498978,163.96198308299063,,,,,,,,463601,001,2024-05-12_00h41.30.327,creatingimagesNEW,2024.1.4,None,2024-05-12 00h41.36.819984 -0400,
"(0, -0.25)",b,,0.0,0.0,,,,,1,11,67,44,163.9688505410013,,,,,,,,,,,,,,,,,,,,,,,,,163.96214195799257,165.03098283299187,,,,,,,,463601,001,2024-05-12_00h41.30.327,creatingimagesNEW,2024.1.4,None,2024-05-12 00h41.36.819984 -0400,
"(0.1875, 0.1875)",g,,0.0,0.0,,,,,1,12,68,1,165.03736124999705,,,,,,,,,,,,,,,,,,,,,,,,,165.0311442079983,166.50572575000115,,,,,,,,463601,001,2024-05-12_00h41.30.327,creatingimagesNEW,2024.1.4,None,2024-05-12 00h41.36.819984 -0400,
"(-0.25, 0)",b,,"(0.1875, -0.1875)",0.0,,,,,1,13,69,54,166.51314358299715,,,,,,,,,,,,,,,,,,,,,,,,,166.50593770800333,167.57606470800238,,,,,,,,463601,001,2024-05-12_00h41.30.327,creatingimagesNEW,2024.1.4,None,2024-05-12 00h41.36.819984 -0400,
"(0.25, 0)",g,,0.0,0.0,,,,,1,14,70,2,167.5828013749997,,,,,,,,,,,,,,,,,,,,,,,,,167.57623058299941,168.84492620799574,,,,,,,,463601,001,2024-05-12_00h41.30.327,creatingimagesNEW,2024.1.4,None,2024-05-12 00h41.36.819984 -0400,
"(0.25, 0)",r,,0.0,0.0,,,,,1,15,71,18,168.85154420799518,,,,,,,,,,,,,,,,,,,,,,,,,168.8450877909927,169.81366754099145,,,,,,,,463601,001,2024-05-12_00h41.30.327,creatingimagesNEW,2024.1.4,None,2024-05-12 00h41.36.819984 -0400,
"(-0.25, 0)",g,,0.0,0.0,,,,,1,16,72,6,169.8205978749902,,,,,,,,,,,,,,,,,,,,,,,,,169.81383625000308,170.88291645799472,,,,,,,,463601,001,2024-05-12_00h41.30.327,creatingimagesNEW,2024.1.4,None,2024-05-12 00h41.36.819984 -0400,
"(0, -0.25)",r,,0.0,0.0,,,,,1,17,73,20,170.8898216249945,,,,,,,,,,,,,,,,,,,,,,,,,170.88306962499337,171.8521955000033,,,,,,,,463601,001,2024-05-12_00h41.30.327,creatingimagesNEW,2024.1.4,None,2024-05-12 00h41.36.819984 -0400,
"(0.25, 0)",g,,0.0,"(-0.1875, 0.1875)",,,,,1,18,74,10,171.85871108299762,,,,,,,,,,,,,,,,,,,,,,,,,171.85235029099567,173.6215510829934,,,,,,,,463601,001,2024-05-12_00h41.30.327,creatingimagesNEW,2024.1.4,None,2024-05-12 00h41.36.819984 -0400,
"(-0.1875, -0.1875)",g,,0.0,"(0, 0.25)",,,,,1,19,75,13,173.63067050000245,,,,,,,,,,,,,,,,,,,,,,,,,173.6217112079903,175.29313737500343,,,,,,,,463601,001,2024-05-12_00h41.30.327,creatingimagesNEW,2024.1.4,None,2024-05-12 00h41.36.819984 -0400,
"(0.1875, 0.1875)",b,,0.0,0.0,,,,,1,20,76,41,175.30299599999853,,,,,,,,,,,,,,,,,,,,,,,,,175.2933032909932,176.66576466600236,,,,,,,,463601,001,2024-05-12_00h41.30.327,creatingimagesNEW,2024.1.4,None,2024-05-12 00h41.36.819984 -0400,
"(0.1875, -0.1875)",g,,"(-0.25, 0)",0.0,,,,,1,21,77,35,176.6744849999959,,,,,,,,,,,,,,,,,,,,,,,,,176.66592345800018,179.43913120799698,,,,,,,,463601,001,2024-05-12_00h41.30.327,creatingimagesNEW,2024.1.4,None,2024-05-12 00h41.36.819984 -0400,
"(0.1875, 0.1875)",g,,0.0,"(0, -0.25)",,,,,1,22,78,9,179.44842933300242,,,,,,,,,,,,,,,,,,,,,,,,,179.43931091600098,180.8116849999933,,,,,,,,463601,001,2024-05-12_00h41.30.327,creatingimagesNEW,2024.1.4,None,2024-05-12 00h41.36.819984 -0400,
"(-0.1875, -0.1875)",g,,"(0, 0.25)",0.0,,,,,1,23,79,37,180.81849683300243,,,,,,,,,,,,,,,,,,,,,,,,,180.81184429099085,182.38098841600004,,,,,,,,463601,001,2024-05-12_00h41.30.327,creatingimagesNEW,2024.1.4,None,2024-05-12 00h41.36.819984 -0400,
"(0.1875, 0.1875)",r,,0.0,"(0, -0.25)",,,,,1,24,80,25,182.38868708300288,,,,,,,,,,,,,,,,,,,,,,,,,182.38115025000297,183.65112220800074,,,,,,,,463601,001,2024-05-12_00h41.30.327,creatingimagesNEW,2024.1.4,None,2024-05-12 00h41.36.819984 -0400,
"(0, -0.25)",g,,"(0.1875, 0.1875)",0.0,,,,,1,25,81,36,183.65788566599076,,,,,,,,,,,,,,,,,,,,,,,,,183.65128737500345,185.22056183298992,,,,,,,,463601,001,2024-05-12_00h41.30.327,creatingimagesNEW,2024.1.4,None,2024-05-12 00h41.36.819984 -0400,
"(-0.1875, -0.1875)",b,,0.0,0.0,,,,,1,26,82,45,185.22843995799485,,,,,,,,,,,,,,,,,,,,,,,,,185.2207212909998,186.69127737499366,,,,,,,,463601,001,2024-05-12_00h41.30.327,creatingimagesNEW,2024.1.4,None,2024-05-12 00h41.36.819984 -0400,
"(0.1875, 0.1875)",b,,"(0, -0.25)",0.0,,,,,1,27,83,49,186.70052983298956,,,,,,,,,,,,,,,,,,,,,,,,,186.69143583299592,188.36348612500296,,,,,,,,463601,001,2024-05-12_00h41.30.327,creatingimagesNEW,2024.1.4,None,2024-05-12 00h41.36.819984 -0400,
"(-0.1875, 0.1875)",r,,0.0,0.0,,,,,1,28,84,23,188.37270733299374,,,,,,,,,,,,,,,,,,,,,,,,,188.36364658299135,189.8355477909936,,,,,,,,463601,001,2024-05-12_00h41.30.327,creatingimagesNEW,2024.1.4,None,2024-05-12 00h41.36.819984 -0400,
"(-0.25, 0)",b,,0.0,0.0,,,,,1,29,85,46,189.84437441600312,,,,,,,,,,,,,,,,,,,,,,,,,189.83570687499014,191.30680879099236,,,,,,,,463601,001,2024-05-12_00h41.30.327,creatingimagesNEW,2024.1.4,None,2024-05-12 00h41.36.819984 -0400,
"(0, 0.25)",r,,0.0,0.0,,,,,1,30,86,16,191.31570258300053,,,,,,,,,,,,,,,,,,,,,,,,,191.30697174998932,192.67823858300108,,,,,,,,463601,001,2024-05-12_00h41.30.327,creatingimagesNEW,2024.1.4,None,2024-05-12 00h41.36.819984 -0400,
"(0, 0.25)",g,,0.0,0.0,,,,,1,31,87,0,192.68498920799175,,,,,,,,,,,,,,,,,,,,,,,,,192.6784000829939,194.14705624998896,,,,,,,,463601,001,2024-05-12_00h41.30.327,creatingimagesNEW,2024.1.4,None,2024-05-12 00h41.36.819984 -0400,
"(0, 0.25)",g,,"(-0.1875, -0.1875)",0.0,,,,,1,32,88,32,194.15629129100125,,,,,,,,,,,,,,,,,,,,,,,,,194.14721554100106,197.42078129100264,,,,,,,,463601,001,2024-05-12_00h41.30.327,creatingimagesNEW,2024.1.4,None,2024-05-12 00h41.36.819984 -0400,
"(0.1875, 0.1875)",g,,"(0, -0.25)",0.0,,,,,1,33,89,33,197.4302559159987,,,,,,,,,,,,,,,,,,,,,,,,,197.42094404099043,198.7935189580021,,,,,,,,463601,001,2024-05-12_00h41.30.327,creatingimagesNEW,2024.1.4,None,2024-05-12 00h41.36.819984 -0400,
"(0.1875, -0.1875)",g,,0.0,0.0,,,,,1,34,90,3,198.8023686660017,,,,,,,,,,,,,,,,,,,,,,,,,198.79369691599277,200.26534512499347,,,,,,,,463601,001,2024-05-12_00h41.30.327,creatingimagesNEW,2024.1.4,None,2024-05-12 00h41.36.819984 -0400,
"(0.1875, -0.1875)",b,,"(-0.25, 0)",0.0,,,,,1,35,91,51,200.2744416659989,,,,,,,,,,,,,,,,,,,,,,,,,200.26551254099468,201.93756379099796,,,,,,,,463601,001,2024-05-12_00h41.30.327,creatingimagesNEW,2024.1.4,None,2024-05-12 00h41.36.819984 -0400,
"(-0.25, 0)",g,,"(0.1875, -0.1875)",0.0,,,,,1,36,92,38,201.9469849159941,,,,,,,,,,,,,,,,,,,,,,,,,201.93773008299468,203.6098507909919,,,,,,,,463601,001,2024-05-12_00h41.30.327,creatingimagesNEW,2024.1.4,None,2024-05-12 00h41.36.819984 -0400,
"(0.1875, -0.1875)",r,,0.0,"(-0.25, 0)",,,,,1,37,93,27,203.61954212500132,,,,,,,,,,,,,,,,,,,,,,,,,203.6100161659997,205.08276266600296,,,,,,,,463601,001,2024-05-12_00h41.30.327,creatingimagesNEW,2024.1.4,None,2024-05-12 00h41.36.819984 -0400,
"(-0.1875, 0.1875)",g,,0.0,0.0,,,,,1,38,94,7,205.09308308298932,,,,,,,,,,,,,,,,,,,,,,,,,205.0830366250011,206.55669454099552,,,,,,,,463601,001,2024-05-12_00h41.30.327,creatingimagesNEW,2024.1.4,None,2024-05-12 00h41.36.819984 -0400,
"(0, 0.25)",g,,0.0,"(-0.1875, -0.1875)",,,,,1,39,95,8,206.5639219579898,,,,,,,,,,,,,,,,,,,,,,,,,206.55686312499165,207.92652416600322,,,,,,,,463601,001,2024-05-12_00h41.30.327,creatingimagesNEW,2024.1.4,None,2024-05-12 00h41.36.819984 -0400,
"(0.1875, -0.1875)",b,,0.0,0.0,,,,,1,40,96,43,207.93321379099507,,,,,,,,,,,,,,,,,,,,,,,,,207.9266866659891,209.39655408299586,,,,,,,,463601,001,2024-05-12_00h41.30.327,creatingimagesNEW,2024.1.4,None,2024-05-12 00h41.36.819984 -0400,
"(0.25, 0)",r,,0.0,"(-0.1875, 0.1875)",,,,,1,41,97,26,209.40607266599545,,,,,,,,,,,,,,,,,,,,,,,,,209.39672350000183,210.91876754099212,,,,,,,,463601,001,2024-05-12_00h41.30.327,creatingimagesNEW,2024.1.4,None,2024-05-12 00h41.36.819984 -0400,
"(0.1875, -0.1875)",r,,0.0,0.0,,,,,1,42,98,19,210.92779387500195,,,,,,,,,,,,,,,,,,,,,,,,,210.91892974999791,212.2902079159976,,,,,,,,463601,001,2024-05-12_00h41.30.327,creatingimagesNEW,2024.1.4,None,2024-05-12 00h41.36.819984 -0400,
"(0, -0.25)",b,,"(0.1875, 0.1875)",0.0,,,,,1,43,99,52,212.29705129099602,,,,,,,,,,,,,,,,,,,,,,,,,212.29037304100348,213.6592851250025,,,,,,,,463601,001,2024-05-12_00h41.30.327,creatingimagesNEW,2024.1.4,None,2024-05-12 00h41.36.819984 -0400,
"(-0.1875, -0.1875)",r,,0.0,"(0, 0.25)",,,,,1,44,100,29,213.66807433299255,,,,,,,,,,,,,,,,,,,,,,,,,213.65944662499533,215.03065079099906,,,,,,,,463601,001,2024-05-12_00h41.30.327,creatingimagesNEW,2024.1.4,None,2024-05-12 00h41.36.819984 -0400,
"(-0.1875, 0.1875)",r,,0.0,"(0.25, 0)",,,,,1,45,101,31,215.0375075829943,,,,,,,,,,,,,,,,,,,,,,,,,215.0308157499967,216.19981637499586,,,,,,,,463601,001,2024-05-12_00h41.30.327,creatingimagesNEW,2024.1.4,None,2024-05-12 00h41.36.819984 -0400,
"(0.1875, -0.1875)",g,,0.0,"(-0.25, 0)",,,,,1,46,102,11,216.20652199999313,,,,,,,,,,,,,,,,,,,,,,,,,216.19997537499876,217.66968245799944,,,,,,,,463601,001,2024-05-12_00h41.30.327,creatingimagesNEW,2024.1.4,None,2024-05-12 00h41.36.819984 -0400,
"(-0.1875, -0.1875)",b,,"(0, 0.25)",0.0,,,,,1,47,103,53,217.67828866599302,,,,,,,,,,,,,,,,,,,,,,,,,217.66984233299445,219.14182658299978,,,,,,,,463601,001,2024-05-12_00h41.30.327,creatingimagesNEW,2024.1.4,None,2024-05-12 00h41.36.819984 -0400,
"(0, 0.25)",r,,0.0,"(-0.1875, -0.1875)",,,,,1,48,104,24,219.1488814579934,,,,,,,,,,,,,,,,,,,,,,,,,219.14201291599602,220.511597040997,,,,,,,,463601,001,2024-05-12_00h41.30.327,creatingimagesNEW,2024.1.4,None,2024-05-12 00h41.36.819984 -0400,
"(0.25, 0)",b,,"(-0.1875, 0.1875)",0.0,,,,,1,49,105,50,220.52360304100148,,,,,,,,,,,,,,,,,,,,,,,,,220.51176683299127,222.18726066598902,,,,,,,,463601,001,2024-05-12_00h41.30.327,creatingimagesNEW,2024.1.4,None,2024-05-12 00h41.36.819984 -0400,
"(0.1875, 0.1875)",r,,0.0,0.0,,,,,1,50,106,17,222.19667954099714,,,,,,,,,,,,,,,,,,,,,,,,,222.18744041598984,223.6591672909999,,,,,,,,463601,001,2024-05-12_00h41.30.327,creatingimagesNEW,2024.1.4,None,2024-05-12 00h41.36.819984 -0400,
"(0, 0.25)",b,,"(-0.1875, -0.1875)",0.0,,,,,1,51,107,48,223.6661554579914,,,,,,,,,,,,,,,,,,,,,,,,,223.65933041599055,225.12874987500254,,,,,,,,463601,001,2024-05-12_00h41.30.327,creatingimagesNEW,2024.1.4,None,2024-05-12 00h41.36.819984 -0400,
"(-0.25, 0)",r,,0.0,0.0,,,,,1,52,108,22,225.13883737499418,,,,,,,,,,,,,,,,,,,,,,,,,225.12891091599886,226.60133745799249,,,,,,,,463601,001,2024-05-12_00h41.30.327,creatingimagesNEW,2024.1.4,None,2024-05-12 00h41.36.819984 -0400,
"(-0.1875, 0.1875)",g,,0.0,"(0.25, 0)",,,,,1,53,109,15,226.6104372080008,,,,,,,,,,,,,,,,,,,,,,,,,226.60149633299443,228.17353549999825,,,,,,,,463601,001,2024-05-12_00h41.30.327,creatingimagesNEW,2024.1.4,None,2024-05-12 00h41.36.819984 -0400,
"(-0.1875, -0.1875)",r,,0.0,0.0,,,,,1,54,110,21,228.18326949999027,,,,,,,,,,,,,,,,,,,,,,,,,228.17370404099347,229.64661758299917,,,,,,,,463601,001,2024-05-12_00h41.30.327,creatingimagesNEW,2024.1.4,None,2024-05-12 00h41.36.819984 -0400,
"(0.25, 0)",b,,0.0,0.0,,,,,1,55,111,42,229.6559911660006,,,,,,,,,,,,,,,,,,,,,,,,,229.6468098329933,231.11903933300346,,,,,,,,463601,001,2024-05-12_00h41.30.327,creatingimagesNEW,2024.1.4,None,2024-05-12 00h41.36.819984 -0400,
"(0.1875, -0.1875)",g,,0.0,0.0,,,,,2,0,112,3,231.128110790989,,,,,,,,,,,,,,,,,,,,,,,,,231.11920004099375,232.5909879999963,,,,,,,,463601,001,2024-05-12_00h41.30.327,creatingimagesNEW,2024.1.4,None,2024-05-12 00h41.36.819984 -0400,
"(0, -0.25)",b,,"(0.1875, 0.1875)",0.0,,,,,2,1,113,52,232.60003533300187,,,,,,,,,,,,,,,,,,,,,,,,,232.59114458299882,233.96274016599637,,,,,,,,463601,001,2024-05-12_00h41.30.327,creatingimagesNEW,2024.1.4,None,2024-05-12 00h41.36.819984 -0400,
"(-0.1875, 0.1875)",r,,0.0,"(0.25, 0)",,,,,2,2,114,31,233.96963683298964,,,,,,,,,,,,,,,,,,,,,,,,,233.9628956660017,235.33225537498947,,,,,,,,463601,001,2024-05-12_00h41.30.327,creatingimagesNEW,2024.1.4,None,2024-05-12 00h41.36.819984 -0400,
"(-0.25, 0)",r,,0.0,"(0.1875, -0.1875)",,,,,2,3,115,30,235.34096874999523,,,,,,,,,,,,,,,,,,,,,,,,,235.33241575000284,236.703781624994,,,,,,,,463601,001,2024-05-12_00h41.30.327,creatingimagesNEW,2024.1.4,None,2024-05-12 00h41.36.819984 -0400,
"(-0.1875, -0.1875)",b,,0.0,0.0,,,,,2,4,116,45,236.7106419999909,,,,,,,,,,,,,,,,,,,,,,,,,236.7039434999897,238.1733277500025,,,,,,,,463601,001,2024-05-12_00h41.30.327,creatingimagesNEW,2024.1.4,None,2024-05-12 00h41.36.819984 -0400,
"(-0.1875, -0.1875)",r,,0.0,0.0,,,,,2,5,117,21,238.1829411660001,,,,,,,,,,,,,,,,,,,,,,,,,238.1734907499922,239.54618041600042,,,,,,,,463601,001,2024-05-12_00h41.30.327,creatingimagesNEW,2024.1.4,None,2024-05-12 00h41.36.819984 -0400,
"(0.1875, 0.1875)",g,,0.0,"(0, -0.25)",,,,,2,6,118,9,239.55316362499434,,,,,,,,,,,,,,,,,,,,,,,,,239.54634562499996,240.81536933299503,,,,,,,,463601,001,2024-05-12_00h41.30.327,creatingimagesNEW,2024.1.4,None,2024-05-12 00h41.36.819984 -0400,
"(-0.1875, -0.1875)",g,,"(0, 0.25)",0.0,,,,,2,7,119,37,240.82240454100247,,,,,,,,,,,,,,,,,,,,,,,,,240.81553362499108,242.38511212498997,,,,,,,,463601,001,2024-05-12_00h41.30.327,creatingimagesNEW,2024.1.4,None,2024-05-12 00h41.36.819984 -0400,
"(0.1875, -0.1875)",g,,"(-0.25, 0)",0.0,,,,,2,8,120,35,242.39480516599724,,,,,,,,,,,,,,,,,,,,,,,,,242.3852762500028,243.85829216599814,,,,,,,,463601,001,2024-05-12_00h41.30.327,creatingimagesNEW,2024.1.4,None,2024-05-12 00h41.36.819984 -0400,
"(0.1875, 0.1875)",r,,0.0,"(0, -0.25)",,,,,2,9,121,25,243.86517416599963,,,,,,,,,,,,,,,,,,,,,,,,,243.85845616599545,245.22780395799782,,,,,,,,463601,001,2024-05-12_00h41.30.327,creatingimagesNEW,2024.1.4,None,2024-05-12 00h41.36.819984 -0400,
"(0, 0.25)",b,,0.0,0.0,,,,,2,10,122,40,245.23476154099626,,,,,,,,,,,,,,,,,,,,,,,,,245.2279636250023,246.59696479099512,,,,,,,,463601,001,2024-05-12_00h41.30.327,creatingimagesNEW,2024.1.4,None,2024-05-12 00h41.36.819984 -0400,
"(0.1875, -0.1875)",b,,0.0,0.0,,,,,2,11,123,43,246.60385204099293,,,,,,,,,,,,,,,,,,,,,,,,,246.5971247080015,247.96628129099554,,,,,,,,463601,001,2024-05-12_00h41.30.327,creatingimagesNEW,2024.1.4,None,2024-05-12 00h41.36.819984 -0400,
"(-0.1875, 0.1875)",g,,0.0,"(0.25, 0)",,,,,2,12,124,15,247.97554229099478,,,,,,,,,,,,,,,,,,,,,,,,,247.96644420799566,249.63884037500247,,,,,,,,463601,001,2024-05-12_00h41.30.327,creatingimagesNEW,2024.1.4,None,2024-05-12 00h41.36.819984 -0400,
"(-0.25, 0)",g,,0.0,0.0,,,,,2,13,125,6,249.64854508299322,,,,,,,,,,,,,,,,,,,,,,,,,249.63901379099116,250.71126262500184,,,,,,,,463601,001,2024-05-12_00h41.30.327,creatingimagesNEW,2024.1.4,None,2024-05-12 00h41.36.819984 -0400,
"(0.1875, 0.1875)",r,,0.0,0.0,,,,,2,14,126,17,250.7179941249924,,,,,,,,,,,,,,,,,,,,,,,,,250.71142979100114,251.6805119579949,,,,,,,,463601,001,2024-05-12_00h41.30.327,creatingimagesNEW,2024.1.4,None,2024-05-12 00h41.36.819984 -0400,
"(0.25, 0)",g,,0.0,"(-0.1875, 0.1875)",,,,,2,15,127,10,251.68717604099947,,,,,,,,,,,,,,,,,,,,,,,,,251.6806763749919,252.9499788749963,,,,,,,,463601,001,2024-05-12_00h41.30.327,creatingimagesNEW,2024.1.4,None,2024-05-12 00h41.36.819984 -0400,
"(0, 0.25)",g,,0.0,0.0,,,,,2,16,128,0,252.95679637500143,,,,,,,,,,,,,,,,,,,,,,,,,252.95014862499374,254.01929295799346,,,,,,,,463601,001,2024-05-12_00h41.30.327,creatingimagesNEW,2024.1.4,None,2024-05-12 00h41.36.819984 -0400,
"(0.1875, 0.1875)",g,,0.0,0.0,,,,,2,17,129,1,254.02595749999455,,,,,,,,,,,,,,,,,,,,,,,,,254.0194588329905,255.1884865000029,,,,,,,,463601,001,2024-05-12_00h41.30.327,creatingimagesNEW,2024.1.4,None,2024-05-12 00h41.36.819984 -0400,
"(0.1875, -0.1875)",b,,"(-0.25, 0)",0.0,,,,,2,18,130,51,255.19515158300055,,,,,,,,,,,,,,,,,,,,,,,,,255.1886429159931,256.7577983329975,,,,,,,,463601,001,2024-05-12_00h41.30.327,creatingimagesNEW,2024.1.4,None,2024-05-12 00h41.36.819984 -0400,
"(0.25, 0)",r,,0.0,"(-0.1875, 0.1875)",,,,,2,19,131,26,256.76548291600193,,,,,,,,,,,,,,,,,,,,,,,,,256.7579626660008,258.32852154099965,,,,,,,,463601,001,2024-05-12_00h41.30.327,creatingimagesNEW,2024.1.4,None,2024-05-12 00h41.36.819984 -0400,
"(0, 0.25)",b,,"(-0.1875, -0.1875)",0.0,,,,,2,20,132,48,258.3380152909958,,,,,,,,,,,,,,,,,,,,,,,,,258.3286910409952,259.7008819999901,,,,,,,,463601,001,2024-05-12_00h41.30.327,creatingimagesNEW,2024.1.4,None,2024-05-12 00h41.36.819984 -0400,
"(0.25, 0)",b,,0.0,0.0,,,,,2,21,133,42,259.70777941599954,,,,,,,,,,,,,,,,,,,,,,,,,259.7010417499987,261.0702237499936,,,,,,,,463601,001,2024-05-12_00h41.30.327,creatingimagesNEW,2024.1.4,None,2024-05-12 00h41.36.819984 -0400,
"(-0.1875, -0.1875)",r,,0.0,"(0, 0.25)",,,,,2,22,134,29,261.0801013750024,,,,,,,,,,,,,,,,,,,,,,,,,261.070383415994,262.4423080409906,,,,,,,,463601,001,2024-05-12_00h41.30.327,creatingimagesNEW,2024.1.4,None,2024-05-12 00h41.36.819984 -0400,
"(0, -0.25)",r,,0.0,"(0.1875, 0.1875)",,,,,2,23,135,28,262.44926850000047,,,,,,,,,,,,,,,,,,,,,,,,,262.44248191599036,263.9130985410011,,,,,,,,463601,001,2024-05-12_00h41.30.327,creatingimagesNEW,2024.1.4,None,2024-05-12 00h41.36.819984 -0400,
"(0, -0.25)",g,,"(0.1875, 0.1875)",0.0,,,,,2,24,136,36,263.9228959999891,,,,,,,,,,,,,,,,,,,,,,,,,263.9132670830004,265.2857173749944,,,,,,,,463601,001,2024-05-12_00h41.30.327,creatingimagesNEW,2024.1.4,None,2024-05-12 00h41.36.819984 -0400,
"(0.1875, 0.1875)",b,,0.0,0.0,,,,,2,25,137,41,265.2947117500007,,,,,,,,,,,,,,,,,,,,,,,,,265.2858813329949,266.45713691599667,,,,,,,,463601,001,2024-05-12_00h41.30.327,creatingimagesNEW,2024.1.4,None,2024-05-12 00h41.36.819984 -0400,
"(0.25, 0)",g,,"(-0.1875, 0.1875)",0.0,,,,,2,26,138,34,266.46366275000037,,,,,,,,,,,,,,,,,,,,,,,,,266.4572975409974,267.92641770798946,,,,,,,,463601,001,2024-05-12_00h41.30.327,creatingimagesNEW,2024.1.4,None,2024-05-12 00h41.36.819984 -0400,
"(0, 0.25)",g,,0.0,"(-0.1875, -0.1875)",,,,,2,27,139,8,267.9364362079941,,,,,,,,,,,,,,,,,,,,,,,,,267.9265784159943,269.2986508329923,,,,,,,,463601,001,2024-05-12_00h41.30.327,creatingimagesNEW,2024.1.4,None,2024-05-12 00h41.36.819984 -0400,
"(0, -0.25)",g,,0.0,"(0.1875, 0.1875)",,,,,2,28,140,12,269.30578429099114,,,,,,,,,,,,,,,,,,,,,,,,,269.2988137079956,270.66859870799817,,,,,,,,463601,001,2024-05-12_00h41.30.327,creatingimagesNEW,2024.1.4,None,2024-05-12 00h41.36.819984 -0400,
"(0, 0.25)",g,,"(-0.1875, -0.1875)",0.0,,,,,2,29,141,32,270.67541762499604,,,,,,,,,,,,,,,,,,,,,,,,,270.6687604159961,272.0381842499919,,,,,,,,463601,001,2024-05-12_00h41.30.327,creatingimagesNEW,2024.1.4,None,2024-05-12 00h41.36.819984 -0400,
"(0.25, 0)",g,,0.0,0.0,,,,,2,30,142,2,272.04715033299,,,,,,,,,,,,,,,,,,,,,,,,,272.0383441659942,273.30995879099646,,,,,,,,463601,001,2024-05-12_00h41.30.327,creatingimagesNEW,2024.1.4,None,2024-05-12 00h41.36.819984 -0400,
"(0, -0.25)",g,,0.0,0.0,,,,,2,31,143,4,273.3168237909995,,,,,,,,,,,,,,,,,,,,,,,,,273.3101254159992,274.6793855829892,,,,,,,,463601,001,2024-05-12_00h41.30.327,creatingimagesNEW,2024.1.4,None,2024-05-12 00h41.36.819984 -0400,
"(-0.1875, 0.1875)",b,,0.0,0.0,,,,,2,32,144,47,274.6861928750004,,,,,,,,,,,,,,,,,,,,,,,,,274.67954795800324,275.84907545799797,,,,,,,,463601,001,2024-05-12_00h41.30.327,creatingimagesNEW,2024.1.4,None,2024-05-12 00h41.36.819984 -0400,
"(-0.1875, 0.1875)",b,,"(0.25, 0)",0.0,,,,,2,33,145,55,275.8557871660014,,,,,,,,,,,,,,,,,,,,,,,,,275.84923666599207,277.01818708299834,,,,,,,,463601,001,2024-05-12_00h41.30.327,creatingimagesNEW,2024.1.4,None,2024-05-12 00h41.36.819984 -0400,
"(0.1875, 0.1875)",b,,"(0, -0.25)",0.0,,,,,2,34,146,49,277.0248851659999,,,,,,,,,,,,,,,,,,,,,,,,,277.01835025000037,278.08688399998937,,,,,,,,463601,001,2024-05-12_00h41.30.327,creatingimagesNEW,2024.1.4,None,2024-05-12 00h41.36.819984 -0400,
"(-0.25, 0)",b,,0.0,0.0,,,,,2,35,147,46,278.09349074999045,,,,,,,,,,,,,,,,,,,,,,,,,278.08704295799544,279.1556374159991,,,,,,,,463601,001,2024-05-12_00h41.30.327,creatingimagesNEW,2024.1.4,None,2024-05-12 00h41.36.819984 -0400,
"(-0.1875, 0.1875)",g,,0.0,0.0,,,,,2,36,148,7,279.16258774999005,,,,,,,,,,,,,,,,,,,,,,,,,279.1558174160018,280.2252209579892,,,,,,,,463601,001,2024-05-12_00h41.30.327,creatingimagesNEW,2024.1.4,None,2024-05-12 00h41.36.819984 -0400,
"(-0.1875, -0.1875)",g,,0.0,0.0,,,,,2,37,149,5,280.2318218750006,,,,,,,,,,,,,,,,,,,,,,,,,280.2253783749911,281.3937401250005,,,,,,,,463601,001,2024-05-12_00h41.30.327,creatingimagesNEW,2024.1.4,None,2024-05-12 00h41.36.819984 -0400,
"(-0.1875, -0.1875)",b,,"(0, 0.25)",0.0,,,,,2,38,150,53,281.400483874997,,,,,,,,,,,,,,,,,,,,,,,,,281.3939000410028,282.5625077079894,,,,,,,,463601,001,2024-05-12_00h41.30.327,creatingimagesNEW,2024.1.4,None,2024-05-12 00h41.36.819984 -0400,
"(-0.25, 0)",b,,"(0.1875, -0.1875)",0.0,,,,,2,39,151,54,282.5692331659957,,,,,,,,,,,,,,,,,,,,,,,,,282.5626722500019,283.6312302909937,,,,,,,,463601,001,2024-05-12_00h41.30.327,creatingimagesNEW,2024.1.4,None,2024-05-12 00h41.36.819984 -0400,
"(-0.1875, 0.1875)",r,,0.0,0.0,,,,,2,40,152,23,283.6379885409988,,,,,,,,,,,,,,,,,,,,,,,,,283.63139008299913,284.5995076249965,,,,,,,,463601,001,2024-05-12_00h41.30.327,creatingimagesNEW,2024.1.4,None,2024-05-12 00h41.36.819984 -0400,
"(0, -0.25)",r,,0.0,0.0,,,,,2,41,153,20,284.60640979099844,,,,,,,,,,,,,,,,,,,,,,,,,284.5996634159965,285.6687637080031,,,,,,,,463601,001,2024-05-12_00h41.30.327,creatingimagesNEW,2024.1.4,None,2024-05-12 00h41.36.819984 -0400,
"(-0.1875, -0.1875)",g,,0.0,"(0, 0.25)",,,,,2,42,154,13,285.6753749999916,,,,,,,,,,,,,,,,,,,,,,,,,285.668923499994,287.5380177499901,,,,,,,,463601,001,2024-05-12_00h41.30.327,creatingimagesNEW,2024.1.4,None,2024-05-12 00h41.36.819984 -0400,
"(0.1875, -0.1875)",r,,0.0,"(-0.25, 0)",,,,,2,43,155,27,287.5482268749911,,,,,,,,,,,,,,,,,,,,,,,,,287.53818191599566,288.7106179580005,,,,,,,,463601,001,2024-05-12_00h41.30.327,creatingimagesNEW,2024.1.4,None,2024-05-12 00h41.36.819984 -0400,
"(-0.25, 0)",g,,0.0,"(0.1875, -0.1875)",,,,,2,44,156,14,288.7173197499942,,,,,,,,,,,,,,,,,,,,,,,,,288.7107818329969,290.5804005829996,,,,,,,,463601,001,2024-05-12_00h41.30.327,creatingimagesNEW,2024.1.4,None,2024-05-12 00h41.36.819984 -0400,
"(0.25, 0)",r,,0.0,0.0,,,,,2,45,157,18,290.5896602080029,,,,,,,,,,,,,,,,,,,,,,,,,290.580558665999,291.8527907079988,,,,,,,,463601,001,2024-05-12_00h41.30.327,creatingimagesNEW,2024.1.4,None,2024-05-12 00h41.36.819984 -0400,
"(0.1875, -0.1875)",g,,0.0,"(-0.25, 0)",,,,,2,46,158,11,291.8597921249893,,,,,,,,,,,,,,,,,,,,,,,,,291.85295458299515,293.4229481249931,,,,,,,,463601,001,2024-05-12_00h41.30.327,creatingimagesNEW,2024.1.4,None,2024-05-12 00h41.36.819984 -0400,
"(-0.25, 0)",g,,"(0.1875, -0.1875)",0.0,,,,,2,47,159,38,293.4310684160009,,,,,,,,,,,,,,,,,,,,,,,,,293.4231109579996,294.4930781659932,,,,,,,,463601,001,2024-05-12_00h41.30.327,creatingimagesNEW,2024.1.4,None,2024-05-12 00h41.36.819984 -0400,
"(0, 0.25)",r,,0.0,"(-0.1875, -0.1875)",,,,,2,48,160,24,294.499872165994,,,,,,,,,,,,,,,,,,,,,,,,,294.49324183299905,295.60570604099485,,,,,,,,463601,001,2024-05-12_00h41.30.327,creatingimagesNEW,2024.1.4,None,2024-05-12 00h41.36.819984 -0400,
"(0, 0.25)",r,,0.0,0.0,,,,,2,49,161,16,295.61261870799353,,,,,,,,,,,,,,,,,,,,,,,,,295.60587070799374,296.57483808299,,,,,,,,463601,001,2024-05-12_00h41.30.327,creatingimagesNEW,2024.1.4,None,2024-05-12 00h41.36.819984 -0400,
"(0.25, 0)",b,,"(-0.1875, 0.1875)",0.0,,,,,2,50,162,50,296.58146387500165,,,,,,,,,,,,,,,,,,,,,,,,,296.5749970829929,297.84372274999623,,,,,,,,463601,001,2024-05-12_00h41.30.327,creatingimagesNEW,2024.1.4,None,2024-05-12 00h41.36.819984 -0400,
"(0, -0.25)",b,,0.0,0.0,,,,,2,51,163,44,297.8504758749914,,,,,,,,,,,,,,,,,,,,,,,,,297.8438846249919,298.9131117499928,,,,,,,,463601,001,2024-05-12_00h41.30.327,creatingimagesNEW,2024.1.4,None,2024-05-12 00h41.36.819984 -0400,
"(-0.1875, 0.1875)",g,,"(0.25, 0)",0.0,,,,,2,52,164,39,298.9201811660023,,,,,,,,,,,,,,,,,,,,,,,,,298.9132733329898,300.3830751659989,,,,,,,,463601,001,2024-05-12_00h41.30.327,creatingimagesNEW,2024.1.4,None,2024-05-12 00h41.36.819984 -0400,
"(0.1875, -0.1875)",r,,0.0,0.0,,,,,2,53,165,19,300.39117845799774,,,,,,,,,,,,,,,,,,,,,,,,,300.3832421249972,301.45355683300295,,,,,,,,463601,001,2024-05-12_00h41.30.327,creatingimagesNEW,2024.1.4,None,2024-05-12 00h41.36.819984 -0400,
"(-0.25, 0)",r,,0.0,0.0,,,,,2,54,166,22,301.4600417499896,,,,,,,,,,,,,,,,,,,,,,,,,301.4537181249907,302.5221200829983,,,,,,,,463601,001,2024-05-12_00h41.30.327,creatingimagesNEW,2024.1.4,None,2024-05-12 00h41.36.819984 -0400,
"(0.1875, 0.1875)",g,,"(0, -0.25)",0.0,,,,,2,55,167,33,302.5289968750003,,,,,,,,,,,,,,,,,,,,,,,,,302.5222804160003,303.69124208299036,,,,,,,,463601,001,2024-05-12_00h41.30.327,creatingimagesNEW,2024.1.4,None,2024-05-12 00h41.36.819984 -0400,
,,,,,,,,,,,,,,,,,,,,,,,,,,,,,,,,,,,,,,,,303.6912858750002,303.69784295799036,303.69784295799036,304.7066117909999,space,1.0057007080031326,None,463601,001,2024-05-12_00h41.30.327,creatingimagesNEW,2024.1.4,None,2024-05-12 00h41.36.819984 -0400,
