triangle_pos,triangle_color,pink_circle_pos,trials.thisRepN,trials.thisTrialN,trials.thisN,trials.thisIndex,thisRow.t,notes,Welcome_Page.started,textWelcomePage.started,key_resp.started,Welcome_Page.stopped,key_resp.keys,key_resp.rt,key_resp.duration,code_attempt.started,code_attempt.stopped,builder_attempt.started,mouse.started,circle1.started,circle2.started,circle3.started,circle4.started,circle5.started,circle6.started,circle7.started,triangle1.started,builder_attempt.stopped,mouse.x,mouse.y,mouse.leftButton,mouse.midButton,mouse.rightButton,mouse.corr,mouse.clicked_name,End_Routine.started,End_Text.started,key_resp_2.started,End_Routine.stopped,key_resp_2.keys,key_resp_2.rt,key_resp_2.duration,participant,session,date,expName,psychopyVersion,frameRate,expStart,
,,,,,,,,,0.015806208015419543,0.02880470803938806,1.9938776250346564,4.26243995805271,space,2.263619582983665,None,,,,,,,,,,,,,,,,,,,,,,,,,,,,575965,001,2024-05-05_23h22.41.786,creatingimagesNEW,2024.1.4,None,2024-05-05 23h22.48.199203 -0400,
"(0, 0.25)",g,"(-0.1875, -0.1875)",0,0,0,8,4.31352850003168,,,,,,,,,4.282903292041738,6.578094750002492,,,,,,,,,,,,,,,,,,,,,,,,,,575965,001,2024-05-05_23h22.41.786,creatingimagesNEW,2024.1.4,None,2024-05-05 23h22.48.199203 -0400,
"(-0.25, 0)",g,0.0,0,1,1,6,6.586837958020624,,,,,,,,,6.578253083047457,7.849590458034072,,,,,,,,,,,,,,,,,,,,,,,,,,575965,001,2024-05-05_23h22.41.786,creatingimagesNEW,2024.1.4,None,2024-05-05 23h22.48.199203 -0400,
"(0, 0.25)",g,0.0,0,2,2,0,7.856323958025314,,,,,,,,,7.849742875027005,9.11884466704214,,,,,,,,,,,,,,,,,,,,,,,,,,575965,001,2024-05-05_23h22.41.786,creatingimagesNEW,2024.1.4,None,2024-05-05 23h22.48.199203 -0400,
"(0, -0.25)",p,0.0,0,3,3,20,9.125639958016109,,,,,,,,,9.119003708008677,10.387724667030852,,,,,,,,,,,,,,,,,,,,,,,,,,575965,001,2024-05-05_23h22.41.786,creatingimagesNEW,2024.1.4,None,2024-05-05 23h22.48.199203 -0400,
"(-0.25, 0)",p,0.0,0,4,4,22,10.394279166997876,,,,,,,,,10.387877458008006,11.656483708007727,,,,,,,,,,,,,,,,,,,,,,,,,,575965,001,2024-05-05_23h22.41.786,creatingimagesNEW,2024.1.4,None,2024-05-05 23h22.48.199203 -0400,
"(-0.1875, 0.1875)",g,0.0,0,5,5,7,11.662913833046332,,,,,,,,,11.65663470805157,13.925440874998458,,,,,,,,,,,,,,,,,,,,,,,,,,575965,001,2024-05-05_23h22.41.786,creatingimagesNEW,2024.1.4,None,2024-05-05 23h22.48.199203 -0400,
"(-0.1875, -0.1875)",g,"(-0.25, 0)",0,6,6,13,13.933908750012051,,,,,,,,,13.925596333050635,15.196119667030871,,,,,,,,,,,,,,,,,,,,,,,,,,575965,001,2024-05-05_23h22.41.786,creatingimagesNEW,2024.1.4,None,2024-05-05 23h22.48.199203 -0400,
"(0.1875, -0.1875)",g,0.0,0,7,7,3,15.20254179200856,,,,,,,,,15.196273917041253,16.4646267920034,,,,,,,,,,,,,,,,,,,,,,,,,,575965,001,2024-05-05_23h22.41.786,creatingimagesNEW,2024.1.4,None,2024-05-05 23h22.48.199203 -0400,
"(-0.1875, 0.1875)",g,"(0.1875, 0.1875)",0,8,8,15,16.471445875009522,,,,,,,,,16.464819750050083,17.734240792051423,,,,,,,,,,,,,,,,,,,,,,,,,,575965,001,2024-05-05_23h22.41.786,creatingimagesNEW,2024.1.4,None,2024-05-05 23h22.48.199203 -0400,
"(0, 0.25)",p,0.0,0,9,9,16,17.74078054202255,,,,,,,,,17.734391208039597,19.002707583014853,,,,,,,,,,,,,,,,,,,,,,,,,,575965,001,2024-05-05_23h22.41.786,creatingimagesNEW,2024.1.4,None,2024-05-05 23h22.48.199203 -0400,
"(-0.1875, -0.1875)",p,0.0,0,10,10,21,19.0092004580074,,,,,,,,,19.00285716704093,20.270895417022984,,,,,,,,,,,,,,,,,,,,,,,,,,575965,001,2024-05-05_23h22.41.786,creatingimagesNEW,2024.1.4,None,2024-05-05 23h22.48.199203 -0400,
"(0.1875, -0.1875)",p,0.0,0,11,11,19,20.277394833043218,,,,,,,,,20.27105679200031,21.540027958049905,,,,,,,,,,,,,,,,,,,,,,,,,,575965,001,2024-05-05_23h22.41.786,creatingimagesNEW,2024.1.4,None,2024-05-05 23h22.48.199203 -0400,
"(0.1875, 0.1875)",g,0.0,0,12,12,1,21.54658250004286,,,,,,,,,21.540182042052038,22.808566874999087,,,,,,,,,,,,,,,,,,,,,,,,,,575965,001,2024-05-05_23h22.41.786,creatingimagesNEW,2024.1.4,None,2024-05-05 23h22.48.199203 -0400,
"(0.25, 0)",p,0.0,0,13,13,18,22.815045249997638,,,,,,,,,22.808715917053632,24.077267250046134,,,,,,,,,,,,,,,,,,,,,,,,,,575965,001,2024-05-05_23h22.41.786,creatingimagesNEW,2024.1.4,None,2024-05-05 23h22.48.199203 -0400,
"(-0.1875, -0.1875)",g,0.0,0,14,14,5,24.083786792005412,,,,,,,,,24.077423833019566,25.346534833020996,,,,,,,,,,,,,,,,,,,,,,,,,,575965,001,2024-05-05_23h22.41.786,creatingimagesNEW,2024.1.4,None,2024-05-05 23h22.48.199203 -0400,
"(0, -0.25)",g,"(-0.1875, 0.1875)",0,15,15,12,25.353139708051458,,,,,,,,,25.346692708029877,26.615348042047117,,,,,,,,,,,,,,,,,,,,,,,,,,575965,001,2024-05-05_23h22.41.786,creatingimagesNEW,2024.1.4,None,2024-05-05 23h22.48.199203 -0400,
"(0.1875, 0.1875)",p,0.0,0,16,16,17,26.621982542041223,,,,,,,,,26.615497667051386,27.884701833012514,,,,,,,,,,,,,,,,,,,,,,,,,,575965,001,2024-05-05_23h22.41.786,creatingimagesNEW,2024.1.4,None,2024-05-05 23h22.48.199203 -0400,
"(-0.25, 0)",g,"(0.1875, -0.1875)",0,17,17,14,27.891172042000107,,,,,,,,,27.884853167051915,29.152937625010964,,,,,,,,,,,,,,,,,,,,,,,,,,575965,001,2024-05-05_23h22.41.786,creatingimagesNEW,2024.1.4,None,2024-05-05 23h22.48.199203 -0400,
"(0.25, 0)",g,"(0, 0.25)",0,18,18,10,29.15958933305228,,,,,,,,,29.153102125041187,30.421551583043765,,,,,,,,,,,,,,,,,,,,,,,,,,575965,001,2024-05-05_23h22.41.786,creatingimagesNEW,2024.1.4,None,2024-05-05 23h22.48.199203 -0400,
"(0.25, 0)",g,0.0,0,19,19,2,30.42808037501527,,,,,,,,,30.421704083040822,31.690335582999978,,,,,,,,,,,,,,,,,,,,,,,,,,575965,001,2024-05-05_23h22.41.786,creatingimagesNEW,2024.1.4,None,2024-05-05 23h22.48.199203 -0400,
"(0.1875, 0.1875)",g,"(0, -0.25)",0,20,20,9,31.69695779203903,,,,,,,,,31.690486833045725,32.958875375043135,,,,,,,,,,,,,,,,,,,,,,,,,,575965,001,2024-05-05_23h22.41.786,creatingimagesNEW,2024.1.4,None,2024-05-05 23h22.48.199203 -0400,
"(0.1875, -0.1875)",g,"(0.25, 0)",0,21,21,11,32.96542145800777,,,,,,,,,32.95903254201403,34.22815512504894,,,,,,,,,,,,,,,,,,,,,,,,,,575965,001,2024-05-05_23h22.41.786,creatingimagesNEW,2024.1.4,None,2024-05-05 23h22.48.199203 -0400,
"(-0.1875, 0.1875)",p,0.0,0,22,22,23,34.23471375001827,,,,,,,,,34.22831162501825,35.49682483304059,,,,,,,,,,,,,,,,,,,,,,,,,,575965,001,2024-05-05_23h22.41.786,creatingimagesNEW,2024.1.4,None,2024-05-05 23h22.48.199203 -0400,
"(0, -0.25)",g,0.0,0,23,23,4,35.503273333015386,,,,,,,,,35.49697658303194,36.76579033304006,,,,,,,,,,,,,,,,,,,,,,,,,,575965,001,2024-05-05_23h22.41.786,creatingimagesNEW,2024.1.4,None,2024-05-05 23h22.48.199203 -0400,
,,,,,,,,,,,,,,,,,,36.76583308301633,0.0038284590118564665,37.77122104202863,37.77122104202863,37.77122104202863,37.77122104202863,37.77122104202863,37.77122104202863,37.77122104202863,37.77122104202863,39.86374791699927,-0.004629629629629629,-0.24189814814814814,1,0,0,[1],unnamed Polygon,,,,,,,,575965,001,2024-05-05_23h22.41.786,creatingimagesNEW,2024.1.4,None,2024-05-05 23h22.48.199203 -0400,
,,,,,,,,,,,,,,,,,,,,,,,,,,,,,,,,,,,,39.864015292027034,39.872261583048385,39.872261583048385,41.080610708042514,space,1.2031552079715766,None,575965,001,2024-05-05_23h22.41.786,creatingimagesNEW,2024.1.4,None,2024-05-05 23h22.48.199203 -0400,
