triangle_pos,triangle_color,red_circle_pos,blue_circle_pos,test_trial_before_experiment.thisRepN,test_trial_before_experiment.thisTrialN,test_trial_before_experiment.thisN,test_trial_before_experiment.thisIndex,trials.thisRepN,trials.thisTrialN,trials.thisN,trials.thisIndex,thisRow.t,notes,Welcome_Page.started,textWelcomePage.started,key_resp.started,Welcome_Page.stopped,key_resp.keys,key_resp.rt,key_resp.duration,Test_Trial_routine_instructions.started,text.started,key_resp_3.started,Test_Trial_routine_instructions.stopped,key_resp_3.keys,key_resp_3.rt,key_resp_3.duration,test_trial.started,test_trial.stopped,Actual_Trial_Instructions.started,actual_trial_intructions.started,key_resp_4.started,Actual_Trial_Instructions.stopped,key_resp_4.keys,key_resp_4.rt,key_resp_4.duration,Real_Trials.started,Real_Trials.stopped,participant,session,date,expName,psychopyVersion,frameRate,expStart,
,,,,,,,,,,,,,,0.018637599889189005,0.03795129992067814,2.005224199965596,2.0074151000007987,space,1.899055999936536,None,,,,,,,,,,,,,,,,,,,642993,001,2024-05-10_12h44.24.202,creatingimagesNEW,2024.1.1,None,2024-05-10 12h44.31.502045 -0400,
,,,,,,,,,,,,,,,,,,,,,2.0074658000376076,2.021586899878457,3.0219036999624223,3.0399136999621987,space,3.037212499883026,None,,,,,,,,,,,,642993,001,2024-05-10_12h44.24.202,creatingimagesNEW,2024.1.1,None,2024-05-10 12h44.31.502045 -0400,
"(0, -0.25)",g,0.0,"(0.1875, 0.1875)",0,0,0,36,,,,,3.269301400054246,,,,,,,,,,,,,,,,3.0485058000776917,4.044955800054595,,,,,,,,,,642993,001,2024-05-10_12h44.24.202,creatingimagesNEW,2024.1.1,None,2024-05-10 12h44.31.502045 -0400,
"(-0.25, 0)",b,0.0,0.0,0,1,1,46,,,,,4.252371300011873,,,,,,,,,,,,,,,,4.045257699908689,4.923648600000888,,,,,,,,,,642993,001,2024-05-10_12h44.24.202,creatingimagesNEW,2024.1.1,None,2024-05-10 12h44.31.502045 -0400,
"(0.25, 0)",r,"(-0.1875, 0.1875)",0.0,0,2,2,26,,,,,5.135814900044352,,,,,,,,,,,,,,,,4.923983399989083,5.910540800075978,,,,,,,,,,642993,001,2024-05-10_12h44.24.202,creatingimagesNEW,2024.1.1,None,2024-05-10 12h44.31.502045 -0400,
"(-0.25, 0)",b,0.0,"(0.1875, -0.1875)",0,3,3,54,,,,,6.135898699983954,,,,,,,,,,,,,,,,5.910882099997252,6.810556099982932,,,,,,,,,,642993,001,2024-05-10_12h44.24.202,creatingimagesNEW,2024.1.1,None,2024-05-10 12h44.31.502045 -0400,
"(0.25, 0)",g,"(-0.1875, 0.1875)",0.0,0,4,4,10,,,,,7.019588500028476,,,,,,,,,,,,,,,,6.810863999882713,7.793766299961135,,,,,,,,,,642993,001,2024-05-10_12h44.24.202,creatingimagesNEW,2024.1.1,None,2024-05-10 12h44.31.502045 -0400,
"(0, 0.25)",g,0.0,"(-0.1875, -0.1875)",0,5,5,32,,,,,8.003295500064269,,,,,,,,,,,,,,,,7.794123400002718,8.674473899882287,,,,,,,,,,642993,001,2024-05-10_12h44.24.202,creatingimagesNEW,2024.1.1,None,2024-05-10 12h44.31.502045 -0400,
"(-0.1875, 0.1875)",b,0.0,"(0.25, 0)",0,6,6,55,,,,,8.885942799970508,,,,,,,,,,,,,,,,8.674819400068372,9.558625600067899,,,,,,,,,,642993,001,2024-05-10_12h44.24.202,creatingimagesNEW,2024.1.1,None,2024-05-10 12h44.31.502045 -0400,
"(0, 0.25)",r,0.0,0.0,0,7,7,16,,,,,9.769452099921182,,,,,,,,,,,,,,,,9.558920499868691,10.442706400062889,,,,,,,,,,642993,001,2024-05-10_12h44.24.202,creatingimagesNEW,2024.1.1,None,2024-05-10 12h44.31.502045 -0400,
"(0.1875, -0.1875)",r,0.0,0.0,0,8,8,19,,,,,10.65262129995972,,,,,,,,,,,,,,,,10.442998700076714,11.32938709994778,,,,,,,,,,642993,001,2024-05-10_12h44.24.202,creatingimagesNEW,2024.1.1,None,2024-05-10 12h44.31.502045 -0400,
"(-0.25, 0)",g,0.0,0.0,0,9,9,6,,,,,11.553061200072989,,,,,,,,,,,,,,,,11.32981300004758,12.122744400054216,,,,,,,,,,642993,001,2024-05-10_12h44.24.202,creatingimagesNEW,2024.1.1,None,2024-05-10 12h44.31.502045 -0400,
"(0, -0.25)",r,"(0.1875, 0.1875)",0.0,0,10,10,28,,,,,12.33623080002144,,,,,,,,,,,,,,,,12.123046200023964,13.211104299873114,,,,,,,,,,642993,001,2024-05-10_12h44.24.202,creatingimagesNEW,2024.1.1,None,2024-05-10 12h44.31.502045 -0400,
"(0, -0.25)",g,"(0.1875, 0.1875)",0.0,0,11,11,12,,,,,13.419816399924457,,,,,,,,,,,,,,,,13.21153929992579,14.498929899884388,,,,,,,,,,642993,001,2024-05-10_12h44.24.202,creatingimagesNEW,2024.1.1,None,2024-05-10 12h44.31.502045 -0400,
"(-0.1875, -0.1875)",g,0.0,"(0, 0.25)",0,12,12,37,,,,,14.719623900018632,,,,,,,,,,,,,,,,14.499228599946946,15.393041200004518,,,,,,,,,,642993,001,2024-05-10_12h44.24.202,creatingimagesNEW,2024.1.1,None,2024-05-10 12h44.31.502045 -0400,
"(-0.1875, 0.1875)",b,0.0,0.0,0,13,13,47,,,,,15.603118899976835,,,,,,,,,,,,,,,,15.39327559992671,16.47737229987979,,,,,,,,,,642993,001,2024-05-10_12h44.24.202,creatingimagesNEW,2024.1.1,None,2024-05-10 12h44.31.502045 -0400,
"(0.25, 0)",r,0.0,0.0,0,14,14,18,,,,,16.68658009986393,,,,,,,,,,,,,,,,16.477680000010878,17.46141149988398,,,,,,,,,,642993,001,2024-05-10_12h44.24.202,creatingimagesNEW,2024.1.1,None,2024-05-10 12h44.31.502045 -0400,
"(0.1875, 0.1875)",g,0.0,0.0,0,15,15,1,,,,,17.669883999973536,,,,,,,,,,,,,,,,17.46170790004544,18.341675099916756,,,,,,,,,,642993,001,2024-05-10_12h44.24.202,creatingimagesNEW,2024.1.1,None,2024-05-10 12h44.31.502045 -0400,
"(0, 0.25)",g,"(-0.1875, -0.1875)",0.0,0,16,16,8,,,,,18.553215800086036,,,,,,,,,,,,,,,,18.34202209999785,19.4288711999543,,,,,,,,,,642993,001,2024-05-10_12h44.24.202,creatingimagesNEW,2024.1.1,None,2024-05-10 12h44.31.502045 -0400,
"(0.1875, 0.1875)",r,0.0,0.0,0,17,17,17,,,,,19.653399100061506,,,,,,,,,,,,,,,,19.429167999885976,20.225806300062686,,,,,,,,,,642993,001,2024-05-10_12h44.24.202,creatingimagesNEW,2024.1.1,None,2024-05-10 12h44.31.502045 -0400,
"(-0.1875, -0.1875)",r,0.0,0.0,0,18,18,21,,,,,20.436536900000647,,,,,,,,,,,,,,,,20.226160400081426,20.990956499939784,,,,,,,,,,642993,001,2024-05-10_12h44.24.202,creatingimagesNEW,2024.1.1,None,2024-05-10 12h44.31.502045 -0400,
"(-0.1875, -0.1875)",b,0.0,"(0, 0.25)",0,19,19,53,,,,,21.202994300052524,,,,,,,,,,,,,,,,20.991350499913096,21.858666900079697,,,,,,,,,,642993,001,2024-05-10_12h44.24.202,creatingimagesNEW,2024.1.1,None,2024-05-10 12h44.31.502045 -0400,
"(-0.25, 0)",r,"(0.1875, -0.1875)",0.0,0,20,20,30,,,,,22.0700856000185,,,,,,,,,,,,,,,,21.85896119987592,22.844311299966648,,,,,,,,,,642993,001,2024-05-10_12h44.24.202,creatingimagesNEW,2024.1.1,None,2024-05-10 12h44.31.502045 -0400,
"(0, 0.25)",r,"(-0.1875, -0.1875)",0.0,0,21,21,24,,,,,23.053507399978116,,,,,,,,,,,,,,,,22.844652599887922,23.625802099937573,,,,,,,,,,642993,001,2024-05-10_12h44.24.202,creatingimagesNEW,2024.1.1,None,2024-05-10 12h44.31.502045 -0400,
"(-0.25, 0)",g,"(0.1875, -0.1875)",0.0,0,22,22,14,,,,,23.836729200091213,,,,,,,,,,,,,,,,23.626101000001654,24.594550099922344,,,,,,,,,,642993,001,2024-05-10_12h44.24.202,creatingimagesNEW,2024.1.1,None,2024-05-10 12h44.31.502045 -0400,
"(0.1875, 0.1875)",g,0.0,"(0, -0.25)",0,23,23,33,,,,,24.80394440004602,,,,,,,,,,,,,,,,24.594870100030676,25.374949400080368,,,,,,,,,,642993,001,2024-05-10_12h44.24.202,creatingimagesNEW,2024.1.1,None,2024-05-10 12h44.31.502045 -0400,
"(-0.1875, -0.1875)",g,"(0, 0.25)",0.0,0,24,24,13,,,,,25.586796100018546,,,,,,,,,,,,,,,,25.37528060004115,27.07066429988481,,,,,,,,,,642993,001,2024-05-10_12h44.24.202,creatingimagesNEW,2024.1.1,None,2024-05-10 12h44.31.502045 -0400,
"(0.25, 0)",g,0.0,"(-0.1875, 0.1875)",0,25,25,34,,,,,27.287524699931964,,,,,,,,,,,,,,,,27.071095899911597,27.959911199985072,,,,,,,,,,642993,001,2024-05-10_12h44.24.202,creatingimagesNEW,2024.1.1,None,2024-05-10 12h44.31.502045 -0400,
"(-0.25, 0)",r,0.0,0.0,0,26,26,22,,,,,28.17073979997076,,,,,,,,,,,,,,,,27.960117100039497,28.84366809995845,,,,,,,,,,642993,001,2024-05-10_12h44.24.202,creatingimagesNEW,2024.1.1,None,2024-05-10 12h44.31.502045 -0400,
"(-0.1875, 0.1875)",g,"(0.25, 0)",0.0,0,27,27,15,,,,,29.053705400088802,,,,,,,,,,,,,,,,28.844009099993855,29.930140600074083,,,,,,,,,,642993,001,2024-05-10_12h44.24.202,creatingimagesNEW,2024.1.1,None,2024-05-10 12h44.31.502045 -0400,
"(-0.1875, 0.1875)",g,0.0,0.0,0,28,28,7,,,,,30.15542219998315,,,,,,,,,,,,,,,,29.93044800008647,30.826833700062707,,,,,,,,,,642993,001,2024-05-10_12h44.24.202,creatingimagesNEW,2024.1.1,None,2024-05-10 12h44.31.502045 -0400,
"(-0.1875, 0.1875)",r,"(0.25, 0)",0.0,0,29,29,31,,,,,31.037159899948165,,,,,,,,,,,,,,,,30.82715760008432,31.811159000033513,,,,,,,,,,642993,001,2024-05-10_12h44.24.202,creatingimagesNEW,2024.1.1,None,2024-05-10 12h44.31.502045 -0400,
"(0, -0.25)",b,0.0,0.0,0,30,30,44,,,,,32.020689799916,,,,,,,,,,,,,,,,31.81146840006113,32.59347560000606,,,,,,,,,,642993,001,2024-05-10_12h44.24.202,creatingimagesNEW,2024.1.1,None,2024-05-10 12h44.31.502045 -0400,
"(0.1875, -0.1875)",r,"(-0.25, 0)",0.0,0,31,31,27,,,,,32.80415800004266,,,,,,,,,,,,,,,,32.59371980000287,33.77937850006856,,,,,,,,,,642993,001,2024-05-10_12h44.24.202,creatingimagesNEW,2024.1.1,None,2024-05-10 12h44.31.502045 -0400,
"(0.1875, 0.1875)",b,0.0,"(0, -0.25)",0,32,32,49,,,,,33.98763870005496,,,,,,,,,,,,,,,,33.77965119993314,34.6633963000495,,,,,,,,,,642993,001,2024-05-10_12h44.24.202,creatingimagesNEW,2024.1.1,None,2024-05-10 12h44.31.502045 -0400,
"(0.1875, -0.1875)",g,"(-0.25, 0)",0.0,0,33,33,11,,,,,34.88774250005372,,,,,,,,,,,,,,,,34.663832399994135,35.561276599997655,,,,,,,,,,642993,001,2024-05-10_12h44.24.202,creatingimagesNEW,2024.1.1,None,2024-05-10 12h44.31.502045 -0400,
"(-0.1875, -0.1875)",g,0.0,0.0,0,34,34,5,,,,,35.77089639985934,,,,,,,,,,,,,,,,35.561570700025186,36.44352449988946,,,,,,,,,,642993,001,2024-05-10_12h44.24.202,creatingimagesNEW,2024.1.1,None,2024-05-10 12h44.31.502045 -0400,
"(0.25, 0)",b,0.0,0.0,0,35,35,42,,,,,36.654215699993074,,,,,,,,,,,,,,,,36.44384179986082,37.20876569999382,,,,,,,,,,642993,001,2024-05-10_12h44.24.202,creatingimagesNEW,2024.1.1,None,2024-05-10 12h44.31.502045 -0400,
"(0, 0.25)",b,0.0,0.0,0,36,36,40,,,,,37.42022389988415,,,,,,,,,,,,,,,,37.209197900025174,38.09318089997396,,,,,,,,,,642993,001,2024-05-10_12h44.24.202,creatingimagesNEW,2024.1.1,None,2024-05-10 12h44.31.502045 -0400,
"(0.1875, -0.1875)",b,0.0,"(-0.25, 0)",0,37,37,51,,,,,38.30424329987727,,,,,,,,,,,,,,,,38.093369900016114,39.0773064000532,,,,,,,,,,642993,001,2024-05-10_12h44.24.202,creatingimagesNEW,2024.1.1,None,2024-05-10 12h44.31.502045 -0400,
"(-0.25, 0)",g,0.0,"(0.1875, -0.1875)",0,38,38,38,,,,,39.287666300078854,,,,,,,,,,,,,,,,39.07760119996965,40.16320939990692,,,,,,,,,,642993,001,2024-05-10_12h44.24.202,creatingimagesNEW,2024.1.1,None,2024-05-10 12h44.31.502045 -0400,
"(0.1875, 0.1875)",r,"(0, -0.25)",0.0,0,39,39,25,,,,,40.371169300051406,,,,,,,,,,,,,,,,40.16347400005907,40.94174139993265,,,,,,,,,,642993,001,2024-05-10_12h44.24.202,creatingimagesNEW,2024.1.1,None,2024-05-10 12h44.31.502045 -0400,
"(0.1875, 0.1875)",b,0.0,0.0,0,40,40,41,,,,,41.15421659988351,,,,,,,,,,,,,,,,40.94194659986533,41.92833820008673,,,,,,,,,,642993,001,2024-05-10_12h44.24.202,creatingimagesNEW,2024.1.1,None,2024-05-10 12h44.31.502045 -0400,
"(0, 0.25)",g,0.0,0.0,0,41,41,0,,,,,42.137832399923354,,,,,,,,,,,,,,,,41.92866689991206,43.51649419986643,,,,,,,,,,642993,001,2024-05-10_12h44.24.202,creatingimagesNEW,2024.1.1,None,2024-05-10 12h44.31.502045 -0400,
"(0, 0.25)",b,0.0,"(-0.1875, -0.1875)",0,42,42,48,,,,,43.73826020001434,,,,,,,,,,,,,,,,43.51678629987873,44.30920589994639,,,,,,,,,,642993,001,2024-05-10_12h44.24.202,creatingimagesNEW,2024.1.1,None,2024-05-10 12h44.31.502045 -0400,
"(0.1875, -0.1875)",g,0.0,"(-0.25, 0)",0,43,43,35,,,,,44.52130059991032,,,,,,,,,,,,,,,,44.309508400037885,45.580926599912345,,,,,,,,,,642993,001,2024-05-10_12h44.24.202,creatingimagesNEW,2024.1.1,None,2024-05-10 12h44.31.502045 -0400,
"(0, -0.25)",b,0.0,"(0.1875, 0.1875)",0,44,44,52,,,,,45.78801999986172,,,,,,,,,,,,,,,,45.58122699987143,46.44530920009129,,,,,,,,,,642993,001,2024-05-10_12h44.24.202,creatingimagesNEW,2024.1.1,None,2024-05-10 12h44.31.502045 -0400,
"(0, -0.25)",g,0.0,0.0,0,45,45,4,,,,,46.654877099907026,,,,,,,,,,,,,,,,46.44560909993015,47.63148119999096,,,,,,,,,,642993,001,2024-05-10_12h44.24.202,creatingimagesNEW,2024.1.1,None,2024-05-10 12h44.31.502045 -0400,
"(0, -0.25)",r,0.0,0.0,0,46,46,20,,,,,47.856178199872375,,,,,,,,,,,,,,,,47.63182420004159,48.831350799882784,,,,,,,,,,642993,001,2024-05-10_12h44.24.202,creatingimagesNEW,2024.1.1,None,2024-05-10 12h44.31.502045 -0400,
"(0.25, 0)",g,0.0,0.0,0,47,47,2,,,,,49.03800030006096,,,,,,,,,,,,,,,,48.831604100065306,49.81124640000053,,,,,,,,,,642993,001,2024-05-10_12h44.24.202,creatingimagesNEW,2024.1.1,None,2024-05-10 12h44.31.502045 -0400,
"(-0.1875, 0.1875)",g,0.0,"(0.25, 0)",0,48,48,39,,,,,50.02161039994098,,,,,,,,,,,,,,,,49.81152760004625,50.69540939992294,,,,,,,,,,642993,001,2024-05-10_12h44.24.202,creatingimagesNEW,2024.1.1,None,2024-05-10 12h44.31.502045 -0400,
"(0.25, 0)",b,0.0,"(-0.1875, 0.1875)",0,49,49,50,,,,,50.905009399866685,,,,,,,,,,,,,,,,50.695747799938545,51.478100599953905,,,,,,,,,,642993,001,2024-05-10_12h44.24.202,creatingimagesNEW,2024.1.1,None,2024-05-10 12h44.31.502045 -0400,
"(-0.1875, -0.1875)",b,0.0,0.0,0,50,50,45,,,,,51.68825999996625,,,,,,,,,,,,,,,,51.47839180007577,52.36342759989202,,,,,,,,,,642993,001,2024-05-10_12h44.24.202,creatingimagesNEW,2024.1.1,None,2024-05-10 12h44.31.502045 -0400,
"(0.1875, -0.1875)",g,0.0,0.0,0,51,51,3,,,,,52.5882196999155,,,,,,,,,,,,,,,,52.363822399871424,53.46312289987691,,,,,,,,,,642993,001,2024-05-10_12h44.24.202,creatingimagesNEW,2024.1.1,None,2024-05-10 12h44.31.502045 -0400,
"(-0.1875, 0.1875)",r,0.0,0.0,0,52,52,23,,,,,53.67197989998385,,,,,,,,,,,,,,,,53.46343160001561,54.544518899871036,,,,,,,,,,642993,001,2024-05-10_12h44.24.202,creatingimagesNEW,2024.1.1,None,2024-05-10 12h44.31.502045 -0400,
"(-0.1875, -0.1875)",r,"(0, 0.25)",0.0,0,53,53,29,,,,,54.75532769993879,,,,,,,,,,,,,,,,54.5448127000127,55.32915399991907,,,,,,,,,,642993,001,2024-05-10_12h44.24.202,creatingimagesNEW,2024.1.1,None,2024-05-10 12h44.31.502045 -0400,
"(0.1875, 0.1875)",g,"(0, -0.25)",0.0,0,54,54,9,,,,,55.53831149986945,,,,,,,,,,,,,,,,55.32950409990735,56.247525200014934,,,,,,,,,,642993,001,2024-05-10_12h44.24.202,creatingimagesNEW,2024.1.1,None,2024-05-10 12h44.31.502045 -0400,
"(0.1875, -0.1875)",b,0.0,0.0,0,55,55,43,,,,,56.4720771999564,,,,,,,,,,,,,,,,56.24785719998181,57.14374089986086,,,,,,,,,,642993,001,2024-05-10_12h44.24.202,creatingimagesNEW,2024.1.1,None,2024-05-10 12h44.31.502045 -0400,
,,,,,,,,,,,,,,,,,,,,,,,,,,,,,,57.14380529988557,57.155368299921975,58.15711839986034,59.84241620008834,space,59.829108899924904,None,,,642993,001,2024-05-10_12h44.24.202,creatingimagesNEW,2024.1.1,None,2024-05-10 12h44.31.502045 -0400,
"(-0.25, 0)",b,0.0,"(0.1875, -0.1875)",,,,,0,0,0,54,59.87178649986163,,,,,,,,,,,,,,,,,,,,,,,,,59.85421700007282,60.68658569990657,642993,001,2024-05-10_12h44.24.202,creatingimagesNEW,2024.1.1,None,2024-05-10 12h44.31.502045 -0400,
"(-0.1875, 0.1875)",b,0.0,0.0,,,,,0,1,1,47,60.70495319995098,,,,,,,,,,,,,,,,,,,,,,,,,60.68692669994198,61.43357370002195,642993,001,2024-05-10_12h44.24.202,creatingimagesNEW,2024.1.1,None,2024-05-10 12h44.31.502045 -0400,
"(-0.1875, 0.1875)",g,0.0,"(0.25, 0)",,,,,0,2,2,39,61.45585489994846,,,,,,,,,,,,,,,,,,,,,,,,,61.43396619986743,62.59193559992127,642993,001,2024-05-10_12h44.24.202,creatingimagesNEW,2024.1.1,None,2024-05-10 12h44.31.502045 -0400,
"(0, 0.25)",b,0.0,0.0,,,,,0,3,3,40,62.60565729998052,,,,,,,,,,,,,,,,,,,,,,,,,62.59224039991386,63.28247700002976,642993,001,2024-05-10_12h44.24.202,creatingimagesNEW,2024.1.1,None,2024-05-10 12h44.31.502045 -0400,
,,,,,,,,,,,,63.3056536000222,,,,,,,,,,,,,,,,,,,,,,,,,63.28280350007117,,,,,,,,,
