triangle_pos,triangle_color,pink_circle_pos,test_trial_before_experiment.thisRepN,test_trial_before_experiment.thisTrialN,test_trial_before_experiment.thisN,test_trial_before_experiment.thisIndex,trials.thisRepN,trials.thisTrialN,trials.thisN,trials.thisIndex,thisRow.t,notes,Welcome_Page.started,textWelcomePage.started,key_resp.started,Welcome_Page.stopped,key_resp.keys,key_resp.rt,key_resp.duration,test_trial.started,test_trial.stopped,code_attempt.started,code_attempt.stopped,End_Routine.started,End_Text.started,key_resp_2.started,participant,session,date,expName,psychopyVersion,frameRate,expStart,
,,,,,,,,,,,,,0.007250400027260184,0.024892000015825033,2.0092266000574455,2.0453171000117436,space,2.0432674000039697,None,,,,,,,,812433,001,2024-05-06_17h02.02.874,creatingimagesNEW,2024.1.1,None,2024-05-06 17h02.08.396823 -0400,
"(0, 0.25)",g,0.0,0,0,0,0,,,,,2.0585433000233024,,,,,,,,,2.0518492000410333,6.312801699968986,,,,,,812433,001,2024-05-06_17h02.02.874,creatingimagesNEW,2024.1.1,None,2024-05-06 17h02.08.396823 -0400,
"(0.1875, -0.1875)",p,0.0,0,1,1,3,,,,,6.324259400018491,,,,,,,,,6.31319060001988,7.575075999950059,,,,,,812433,001,2024-05-06_17h02.02.874,creatingimagesNEW,2024.1.1,None,2024-05-06 17h02.08.396823 -0400,
"(-0.25, 0)",g,"(0.25, 0)",0,2,2,8,,,,,7.591100999969058,,,,,,,,,7.5753500000573695,12.813902899972163,,,,,,812433,001,2024-05-06_17h02.02.874,creatingimagesNEW,2024.1.1,None,2024-05-06 17h02.08.396823 -0400,
"(-0.1875, -0.1875)",p,0.0,0,3,3,4,,,,,12.824524200055748,,,,,,,,,12.814389699953608,14.077506999950856,,,,,,812433,001,2024-05-06_17h02.02.874,creatingimagesNEW,2024.1.1,None,2024-05-06 17h02.08.396823 -0400,
"(0.25, 0)",g,0.0,0,4,4,2,,,,,14.091212400002405,,,,,,,,,14.077979500056244,16.344358199974522,,,,,,812433,001,2024-05-06_17h02.02.874,creatingimagesNEW,2024.1.1,None,2024-05-06 17h02.08.396823 -0400,
"(0.1875, 0.1875)",g,0.0,0,5,5,1,,,,,16.35790000006091,,,,,,,,,16.34474730002694,17.608881899970584,,,,,,812433,001,2024-05-06_17h02.02.874,creatingimagesNEW,2024.1.1,None,2024-05-06 17h02.08.396823 -0400,
"(-0.1875, 0.1875)",g,"(-0.25, 0)",0,6,6,7,,,,,17.626204399974085,,,,,,,,,17.609224600018933,18.84274800005369,,,,,,812433,001,2024-05-06_17h02.02.874,creatingimagesNEW,2024.1.1,None,2024-05-06 17h02.08.396823 -0400,
"(-0.25, 0)",p,0.0,0,7,7,5,,,,,18.858790299971588,,,,,,,,,18.843073399970308,21.12753800000064,,,,,,812433,001,2024-05-06_17h02.02.874,creatingimagesNEW,2024.1.1,None,2024-05-06 17h02.08.396823 -0400,
"(0.25, 0)",g,"(-0.1875, -0.1875)",0,8,8,6,,,,,21.14171360002365,,,,,,,,,21.12783260003198,22.360586300026625,,,,,,812433,001,2024-05-06_17h02.02.874,creatingimagesNEW,2024.1.1,None,2024-05-06 17h02.08.396823 -0400,
"(-0.25, 0)",p,0.0,1,0,9,5,,,,,22.375295700039715,,,,,,,,,22.360854599974118,24.62857719999738,,,,,,812433,001,2024-05-06_17h02.02.874,creatingimagesNEW,2024.1.1,None,2024-05-06 17h02.08.396823 -0400,
"(-0.1875, 0.1875)",g,"(-0.25, 0)",1,1,10,7,,,,,24.642543000052683,,,,,,,,,24.628962100017816,25.876442400040105,,,,,,812433,001,2024-05-06_17h02.02.874,creatingimagesNEW,2024.1.1,None,2024-05-06 17h02.08.396823 -0400,
"(0, 0.25)",g,0.0,1,2,11,0,,,,,25.892391699948348,,,,,,,,,25.87686690001283,27.14466640003957,,,,,,812433,001,2024-05-06_17h02.02.874,creatingimagesNEW,2024.1.1,None,2024-05-06 17h02.08.396823 -0400,
"(0.25, 0)",g,0.0,1,3,12,2,,,,,27.158635400002822,,,,,,,,,27.144873399985954,28.40980739996303,,,,,,812433,001,2024-05-06_17h02.02.874,creatingimagesNEW,2024.1.1,None,2024-05-06 17h02.08.396823 -0400,
"(0.1875, 0.1875)",g,0.0,1,4,13,1,,,,,28.425751599948853,,,,,,,,,28.410146999987774,29.67592089995742,,,,,,812433,001,2024-05-06_17h02.02.874,creatingimagesNEW,2024.1.1,None,2024-05-06 17h02.08.396823 -0400,
"(-0.25, 0)",g,"(0.25, 0)",1,5,14,8,,,,,29.693199899978936,,,,,,,,,29.676296700024977,31.911643099971116,,,,,,812433,001,2024-05-06_17h02.02.874,creatingimagesNEW,2024.1.1,None,2024-05-06 17h02.08.396823 -0400,
"(-0.1875, -0.1875)",p,0.0,1,6,15,4,,,,,31.92570170003455,,,,,,,,,31.912066300050355,33.177016800036654,,,,,,812433,001,2024-05-06_17h02.02.874,creatingimagesNEW,2024.1.1,None,2024-05-06 17h02.08.396823 -0400,
"(0.25, 0)",g,"(-0.1875, -0.1875)",1,7,16,6,,,,,33.19245830003638,,,,,,,,,33.17746999999508,35.410006499965675,,,,,,812433,001,2024-05-06_17h02.02.874,creatingimagesNEW,2024.1.1,None,2024-05-06 17h02.08.396823 -0400,
"(0.1875, -0.1875)",p,0.0,1,8,17,3,,,,,35.42580289999023,,,,,,,,,35.41034699999727,36.67728169995826,,,,,,812433,001,2024-05-06_17h02.02.874,creatingimagesNEW,2024.1.1,None,2024-05-06 17h02.08.396823 -0400,
"(0.1875, 0.1875)",g,0.0,2,0,18,1,,,,,36.69317660003435,,,,,,,,,36.67769329994917,38.945439800038,,,,,,812433,001,2024-05-06_17h02.02.874,creatingimagesNEW,2024.1.1,None,2024-05-06 17h02.08.396823 -0400,
"(-0.1875, 0.1875)",g,"(-0.25, 0)",2,1,19,7,,,,,38.95971359999385,,,,,,,,,38.9458746999735,40.194812900037505,,,,,,812433,001,2024-05-06_17h02.02.874,creatingimagesNEW,2024.1.1,None,2024-05-06 17h02.08.396823 -0400,
"(-0.25, 0)",p,0.0,2,2,20,5,,,,,40.20948560000397,,,,,,,,,40.19526589999441,41.46028690005187,,,,,,812433,001,2024-05-06_17h02.02.874,creatingimagesNEW,2024.1.1,None,2024-05-06 17h02.08.396823 -0400,
"(0.25, 0)",g,0.0,2,3,21,2,,,,,41.47596159996465,,,,,,,,,41.46047509997152,42.72722839994822,,,,,,812433,001,2024-05-06_17h02.02.874,creatingimagesNEW,2024.1.1,None,2024-05-06 17h02.08.396823 -0400,
"(0.25, 0)",g,"(-0.1875, -0.1875)",2,4,22,6,,,,,42.743234600056894,,,,,,,,,42.7275515999645,43.960460799979046,,,,,,812433,001,2024-05-06_17h02.02.874,creatingimagesNEW,2024.1.1,None,2024-05-06 17h02.08.396823 -0400,
"(0, 0.25)",g,0.0,2,5,23,0,,,,,43.976833699969575,,,,,,,,,43.96086800005287,45.24346130003687,,,,,,812433,001,2024-05-06_17h02.02.874,creatingimagesNEW,2024.1.1,None,2024-05-06 17h02.08.396823 -0400,
"(-0.25, 0)",g,"(0.25, 0)",2,6,24,8,,,,,45.26036479999311,,,,,,,,,45.24376460001804,47.49584700004198,,,,,,812433,001,2024-05-06_17h02.02.874,creatingimagesNEW,2024.1.1,None,2024-05-06 17h02.08.396823 -0400,
"(0.1875, -0.1875)",p,0.0,2,7,25,3,,,,,47.50990449998062,,,,,,,,,47.496259800042026,50.76500560005661,,,,,,812433,001,2024-05-06_17h02.02.874,creatingimagesNEW,2024.1.1,None,2024-05-06 17h02.08.396823 -0400,
"(-0.1875, -0.1875)",p,0.0,2,8,26,4,,,,,50.77647110004909,,,,,,,,,50.76540919998661,52.02769629994873,,,,,,812433,001,2024-05-06_17h02.02.874,creatingimagesNEW,2024.1.1,None,2024-05-06 17h02.08.396823 -0400,
"(0, -0.25)",p,0.0,,,,,0,0,0,20,52.04352009994909,,,,,,,,,,,52.038950499962084,53.295563800027594,,,,812433,001,2024-05-06_17h02.02.874,creatingimagesNEW,2024.1.1,None,2024-05-06 17h02.08.396823 -0400,
"(-0.1875, -0.1875)",g,0.0,,,,,0,1,1,5,53.31014580000192,,,,,,,,,,,53.29590779996943,54.578169899992645,,,,812433,001,2024-05-06_17h02.02.874,creatingimagesNEW,2024.1.1,None,2024-05-06 17h02.08.396823 -0400,
"(0, 0.25)",g,0.0,,,,,0,2,2,0,54.59404480003286,,,,,,,,,,,54.57862539996859,55.8616667999886,,,,812433,001,2024-05-06_17h02.02.874,creatingimagesNEW,2024.1.1,None,2024-05-06 17h02.08.396823 -0400,
"(0.1875, -0.1875)",g,0.0,,,,,0,3,3,3,55.877184899989516,,,,,,,,,,,55.862120599951595,57.129350999952294,,,,812433,001,2024-05-06_17h02.02.874,creatingimagesNEW,2024.1.1,None,2024-05-06 17h02.08.396823 -0400,
"(0.1875, -0.1875)",p,0.0,,,,,0,4,4,19,57.14393250003923,,,,,,,,,,,57.12973319995217,58.4128976999782,,,,812433,001,2024-05-06_17h02.02.874,creatingimagesNEW,2024.1.1,None,2024-05-06 17h02.08.396823 -0400,
"(-0.1875, -0.1875)",g,"(-0.25, 0)",,,,,0,5,5,13,58.42692720005289,,,,,,,,,,,58.41322069999296,59.678528300020844,,,,812433,001,2024-05-06_17h02.02.874,creatingimagesNEW,2024.1.1,None,2024-05-06 17h02.08.396823 -0400,
"(0.1875, -0.1875)",g,"(0.25, 0)",,,,,0,6,6,11,59.693956100032665,,,,,,,,,,,59.678839300060645,71.97389000002295,,,,812433,001,2024-05-06_17h02.02.874,creatingimagesNEW,2024.1.1,None,2024-05-06 17h02.08.396823 -0400,
"(0, 0.25)",g,"(-0.1875, -0.1875)",,,,,0,7,7,8,71.99662999995053,,,,,,,,,,,71.974315200001,73.26439150003716,,,,812433,001,2024-05-06_17h02.02.874,creatingimagesNEW,2024.1.1,None,2024-05-06 17h02.08.396823 -0400,
"(0, 0.25)",p,0.0,,,,,0,8,8,16,73.28017529996578,,,,,,,,,,,73.26480780006386,74.54571940004826,,,,812433,001,2024-05-06_17h02.02.874,creatingimagesNEW,2024.1.1,None,2024-05-06 17h02.08.396823 -0400,
"(0.1875, 0.1875)",p,0.0,,,,,0,9,9,17,74.56126690004021,,,,,,,,,,,74.54602080001496,76.81396070006303,,,,812433,001,2024-05-06_17h02.02.874,creatingimagesNEW,2024.1.1,None,2024-05-06 17h02.08.396823 -0400,
"(-0.1875, 0.1875)",g,"(0.1875, 0.1875)",,,,,0,10,10,15,76.82783650001511,,,,,,,,,,,76.81439469999168,78.07897330005653,,,,812433,001,2024-05-06_17h02.02.874,creatingimagesNEW,2024.1.1,None,2024-05-06 17h02.08.396823 -0400,
"(0, -0.25)",g,"(-0.1875, 0.1875)",,,,,0,11,11,12,78.09522050002124,,,,,,,,,,,78.0794043999631,79.36328259995207,,,,812433,001,2024-05-06_17h02.02.874,creatingimagesNEW,2024.1.1,None,2024-05-06 17h02.08.396823 -0400,
"(0.1875, 0.1875)",g,"(0, -0.25)",,,,,0,12,12,9,79.37832749995869,,,,,,,,,,,79.363724200055,80.64617510000244,,,,812433,001,2024-05-06_17h02.02.874,creatingimagesNEW,2024.1.1,None,2024-05-06 17h02.08.396823 -0400,
"(-0.1875, 0.1875)",p,0.0,,,,,0,13,13,23,80.66190459998325,,,,,,,,,,,80.6465602000244,81.9142198000336,,,,812433,001,2024-05-06_17h02.02.874,creatingimagesNEW,2024.1.1,None,2024-05-06 17h02.08.396823 -0400,
"(0.25, 0)",g,0.0,,,,,0,14,14,2,81.92833829997107,,,,,,,,,,,81.9145920999581,83.17979860003106,,,,812433,001,2024-05-06_17h02.02.874,creatingimagesNEW,2024.1.1,None,2024-05-06 17h02.08.396823 -0400,
"(0.25, 0)",p,0.0,,,,,0,15,15,18,83.19571440003347,,,,,,,,,,,83.18021000002045,84.44607499998529,,,,812433,001,2024-05-06_17h02.02.874,creatingimagesNEW,2024.1.1,None,2024-05-06 17h02.08.396823 -0400,
"(-0.25, 0)",g,0.0,,,,,0,16,16,6,84.46227310004178,,,,,,,,,,,84.4465360000031,85.74787700001616,,,,812433,001,2024-05-06_17h02.02.874,creatingimagesNEW,2024.1.1,None,2024-05-06 17h02.08.396823 -0400,
"(0.25, 0)",g,"(0, 0.25)",,,,,0,17,17,10,85.76189510000404,,,,,,,,,,,85.74832610005978,87.0129758999683,,,,812433,001,2024-05-06_17h02.02.874,creatingimagesNEW,2024.1.1,None,2024-05-06 17h02.08.396823 -0400,
"(-0.25, 0)",p,0.0,,,,,0,18,18,22,87.02941560000181,,,,,,,,,,,87.01341520005371,88.2978905000491,,,,812433,001,2024-05-06_17h02.02.874,creatingimagesNEW,2024.1.1,None,2024-05-06 17h02.08.396823 -0400,
"(0, -0.25)",g,0.0,,,,,0,19,19,4,88.3121673000278,,,,,,,,,,,88.29827170004137,89.56336469994858,,,,812433,001,2024-05-06_17h02.02.874,creatingimagesNEW,2024.1.1,None,2024-05-06 17h02.08.396823 -0400,
"(-0.25, 0)",g,"(0.1875, -0.1875)",,,,,0,20,20,14,89.57911519997288,,,,,,,,,,,89.56377220002469,90.84853009996004,,,,812433,001,2024-05-06_17h02.02.874,creatingimagesNEW,2024.1.1,None,2024-05-06 17h02.08.396823 -0400,
"(0.1875, 0.1875)",g,0.0,,,,,0,21,21,1,90.86269950005226,,,,,,,,,,,90.84889100003056,92.11301019997336,,,,812433,001,2024-05-06_17h02.02.874,creatingimagesNEW,2024.1.1,None,2024-05-06 17h02.08.396823 -0400,
"(-0.1875, -0.1875)",p,0.0,,,,,0,22,22,21,92.1295487000607,,,,,,,,,,,92.11339579999913,93.39633340004366,,,,812433,001,2024-05-06_17h02.02.874,creatingimagesNEW,2024.1.1,None,2024-05-06 17h02.08.396823 -0400,
"(-0.1875, 0.1875)",g,0.0,,,,,0,23,23,7,93.41299510002136,,,,,,,,,,,93.39668680005707,94.68017329997383,,,,812433,001,2024-05-06_17h02.02.874,creatingimagesNEW,2024.1.1,None,2024-05-06 17h02.08.396823 -0400,
"(-0.1875, -0.1875)",p,0.0,,,,,1,0,24,21,94.69598970003426,,,,,,,,,,,94.68062310002279,95.94669530005194,,,,812433,001,2024-05-06_17h02.02.874,creatingimagesNEW,2024.1.1,None,2024-05-06 17h02.08.396823 -0400,
"(0, 0.25)",p,0.0,,,,,1,1,25,16,95.96262450003996,,,,,,,,,,,95.94713510002475,97.21352390001994,,,,812433,001,2024-05-06_17h02.02.874,creatingimagesNEW,2024.1.1,None,2024-05-06 17h02.08.396823 -0400,
"(-0.1875, -0.1875)",g,"(-0.25, 0)",,,,,1,2,26,13,97.23013659997378,,,,,,,,,,,97.21397090004757,98.49685460003093,,,,812433,001,2024-05-06_17h02.02.874,creatingimagesNEW,2024.1.1,None,2024-05-06 17h02.08.396823 -0400,
"(0.1875, 0.1875)",g,0.0,,,,,1,3,27,1,98.51286739995703,,,,,,,,,,,98.49718690000009,99.78195540001616,,,,812433,001,2024-05-06_17h02.02.874,creatingimagesNEW,2024.1.1,None,2024-05-06 17h02.08.396823 -0400,
"(-0.1875, 0.1875)",p,0.0,,,,,1,4,28,23,99.79689939995296,,,,,,,,,,,99.782361999969,101.04672230000142,,,,812433,001,2024-05-06_17h02.02.874,creatingimagesNEW,2024.1.1,None,2024-05-06 17h02.08.396823 -0400,
"(0, -0.25)",g,0.0,,,,,1,5,29,4,101.06272419996094,,,,,,,,,,,101.0471494999947,102.31412150000688,,,,812433,001,2024-05-06_17h02.02.874,creatingimagesNEW,2024.1.1,None,2024-05-06 17h02.08.396823 -0400,
"(-0.1875, 0.1875)",g,"(0.1875, 0.1875)",,,,,1,6,30,15,102.32966479996685,,,,,,,,,,,102.31453299999703,103.59718190005515,,,,812433,001,2024-05-06_17h02.02.874,creatingimagesNEW,2024.1.1,None,2024-05-06 17h02.08.396823 -0400,
"(0.1875, 0.1875)",g,"(0, -0.25)",,,,,1,7,31,9,103.61352929996792,,,,,,,,,,,103.59758479997981,104.88265689997934,,,,812433,001,2024-05-06_17h02.02.874,creatingimagesNEW,2024.1.1,None,2024-05-06 17h02.08.396823 -0400,
"(-0.1875, 0.1875)",g,0.0,,,,,1,8,32,7,104.89644190005492,,,,,,,,,,,104.88309590006247,106.16395369998645,,,,812433,001,2024-05-06_17h02.02.874,creatingimagesNEW,2024.1.1,None,2024-05-06 17h02.08.396823 -0400,
"(-0.25, 0)",g,0.0,,,,,1,9,33,6,106.18033210001886,,,,,,,,,,,106.16430319997016,108.4489238000242,,,,812433,001,2024-05-06_17h02.02.874,creatingimagesNEW,2024.1.1,None,2024-05-06 17h02.08.396823 -0400,
"(0.25, 0)",p,0.0,,,,,1,10,34,18,108.46317490004003,,,,,,,,,,,108.44929669995327,109.76444199995603,,,,812433,001,2024-05-06_17h02.02.874,creatingimagesNEW,2024.1.1,None,2024-05-06 17h02.08.396823 -0400,
"(0, 0.25)",g,"(-0.1875, -0.1875)",,,,,1,11,35,8,109.7803322999971,,,,,,,,,,,109.76484399999026,111.03239619999658,,,,812433,001,2024-05-06_17h02.02.874,creatingimagesNEW,2024.1.1,None,2024-05-06 17h02.08.396823 -0400,
"(-0.25, 0)",p,0.0,,,,,1,12,36,22,111.046421200037,,,,,,,,,,,111.03281849995255,112.31565070000943,,,,812433,001,2024-05-06_17h02.02.874,creatingimagesNEW,2024.1.1,None,2024-05-06 17h02.08.396823 -0400,
"(0.25, 0)",g,0.0,,,,,1,13,37,2,112.32978509995155,,,,,,,,,,,112.31611320003867,113.58096309995744,,,,812433,001,2024-05-06_17h02.02.874,creatingimagesNEW,2024.1.1,None,2024-05-06 17h02.08.396823 -0400,
"(0.1875, -0.1875)",p,0.0,,,,,1,14,38,19,113.59673810005188,,,,,,,,,,,113.58149430004414,114.84760750003625,,,,812433,001,2024-05-06_17h02.02.874,creatingimagesNEW,2024.1.1,None,2024-05-06 17h02.08.396823 -0400,
"(0, 0.25)",g,0.0,,,,,1,15,39,0,114.86358270002529,,,,,,,,,,,114.84786410001107,116.11462180002127,,,,812433,001,2024-05-06_17h02.02.874,creatingimagesNEW,2024.1.1,None,2024-05-06 17h02.08.396823 -0400,
"(-0.1875, -0.1875)",g,0.0,,,,,1,16,40,5,116.13039039995056,,,,,,,,,,,116.11501069995575,117.38227419997565,,,,812433,001,2024-05-06_17h02.02.874,creatingimagesNEW,2024.1.1,None,2024-05-06 17h02.08.396823 -0400,
"(0.1875, -0.1875)",g,0.0,,,,,1,17,41,3,117.39689720002934,,,,,,,,,,,117.38258089998271,118.64741800003685,,,,812433,001,2024-05-06_17h02.02.874,creatingimagesNEW,2024.1.1,None,2024-05-06 17h02.08.396823 -0400,
"(0, -0.25)",p,0.0,,,,,1,18,42,20,118.66443410003558,,,,,,,,,,,118.64782179996837,119.93259340000805,,,,812433,001,2024-05-06_17h02.02.874,creatingimagesNEW,2024.1.1,None,2024-05-06 17h02.08.396823 -0400,
"(-0.25, 0)",g,"(0.1875, -0.1875)",,,,,1,19,43,14,119.94708750001155,,,,,,,,,,,119.9330203999998,121.19836919999216,,,,812433,001,2024-05-06_17h02.02.874,creatingimagesNEW,2024.1.1,None,2024-05-06 17h02.08.396823 -0400,
"(0.1875, 0.1875)",p,0.0,,,,,1,20,44,17,121.21456350001972,,,,,,,,,,,121.19880340003874,122.4830167000182,,,,812433,001,2024-05-06_17h02.02.874,creatingimagesNEW,2024.1.1,None,2024-05-06 17h02.08.396823 -0400,
"(0.1875, -0.1875)",g,"(0.25, 0)",,,,,1,21,45,11,122.49722470005509,,,,,,,,,,,122.48342659999616,123.74801710003521,,,,812433,001,2024-05-06_17h02.02.874,creatingimagesNEW,2024.1.1,None,2024-05-06 17h02.08.396823 -0400,
"(0, -0.25)",g,"(-0.1875, 0.1875)",,,,,1,22,46,12,123.76416829996742,,,,,,,,,,,123.74840559996665,125.01439859997481,,,,812433,001,2024-05-06_17h02.02.874,creatingimagesNEW,2024.1.1,None,2024-05-06 17h02.08.396823 -0400,
"(0.25, 0)",g,"(0, 0.25)",,,,,1,23,47,10,125.03078330005519,,,,,,,,,,,125.01466960005928,126.29864850000013,,,,812433,001,2024-05-06_17h02.02.874,creatingimagesNEW,2024.1.1,None,2024-05-06 17h02.08.396823 -0400,
"(0, -0.25)",g,0.0,,,,,2,0,48,4,126.31377799995244,,,,,,,,,,,126.29890689998865,128.58592049998697,,,,812433,001,2024-05-06_17h02.02.874,creatingimagesNEW,2024.1.1,None,2024-05-06 17h02.08.396823 -0400,
"(-0.25, 0)",g,0.0,,,,,2,1,49,6,128.59763680002652,,,,,,,,,,,128.58631210005842,129.84876500000246,,,,812433,001,2024-05-06_17h02.02.874,creatingimagesNEW,2024.1.1,None,2024-05-06 17h02.08.396823 -0400,
"(0.1875, 0.1875)",g,"(0, -0.25)",,,,,2,2,50,9,129.8646635999903,,,,,,,,,,,129.849216899951,131.1315987999551,,,,812433,001,2024-05-06_17h02.02.874,creatingimagesNEW,2024.1.1,None,2024-05-06 17h02.08.396823 -0400,
"(-0.1875, 0.1875)",g,"(0.1875, 0.1875)",,,,,2,3,51,15,131.1477637999924,,,,,,,,,,,131.13188660005108,132.41513420001138,,,,812433,001,2024-05-06_17h02.02.874,creatingimagesNEW,2024.1.1,None,2024-05-06 17h02.08.396823 -0400,
"(0, -0.25)",g,"(-0.1875, 0.1875)",,,,,2,4,52,12,132.43145190004725,,,,,,,,,,,132.41546000004746,133.7001855999697,,,,812433,001,2024-05-06_17h02.02.874,creatingimagesNEW,2024.1.1,None,2024-05-06 17h02.08.396823 -0400,
"(0.25, 0)",g,0.0,,,,,2,5,53,2,133.71480089996476,,,,,,,,,,,133.70040209998842,134.96521439997014,,,,812433,001,2024-05-06_17h02.02.874,creatingimagesNEW,2024.1.1,None,2024-05-06 17h02.08.396823 -0400,
"(0, -0.25)",p,0.0,,,,,2,6,54,20,134.98125800001435,,,,,,,,,,,134.9655220999848,136.23252600000706,,,,812433,001,2024-05-06_17h02.02.874,creatingimagesNEW,2024.1.1,None,2024-05-06 17h02.08.396823 -0400,
"(0.25, 0)",p,0.0,,,,,2,7,55,18,136.24845780001488,,,,,,,,,,,136.23288739996497,137.517151499982,,,,812433,001,2024-05-06_17h02.02.874,creatingimagesNEW,2024.1.1,None,2024-05-06 17h02.08.396823 -0400,
"(0.1875, -0.1875)",g,"(0.25, 0)",,,,,2,8,56,11,137.53198149998207,,,,,,,,,,,137.51754779997282,138.78244710003491,,,,812433,001,2024-05-06_17h02.02.874,creatingimagesNEW,2024.1.1,None,2024-05-06 17h02.08.396823 -0400,
"(0, 0.25)",g,0.0,,,,,2,9,57,0,138.79841729998589,,,,,,,,,,,138.78285209997557,140.06608809996396,,,,812433,001,2024-05-06_17h02.02.874,creatingimagesNEW,2024.1.1,None,2024-05-06 17h02.08.396823 -0400,
"(-0.1875, -0.1875)",p,0.0,,,,,2,10,58,21,140.0815084000351,,,,,,,,,,,140.0664756000042,141.33219640003517,,,,812433,001,2024-05-06_17h02.02.874,creatingimagesNEW,2024.1.1,None,2024-05-06 17h02.08.396823 -0400,
"(0.1875, -0.1875)",g,0.0,,,,,2,11,59,3,141.34809210000094,,,,,,,,,,,141.33261250006035,142.61706530000083,,,,812433,001,2024-05-06_17h02.02.874,creatingimagesNEW,2024.1.1,None,2024-05-06 17h02.08.396823 -0400,
"(-0.1875, -0.1875)",g,"(-0.25, 0)",,,,,2,12,60,13,142.63149209995754,,,,,,,,,,,142.61729950003792,143.88385400001425,,,,812433,001,2024-05-06_17h02.02.874,creatingimagesNEW,2024.1.1,None,2024-05-06 17h02.08.396823 -0400,
"(0, 0.25)",g,"(-0.1875, -0.1875)",,,,,2,13,61,8,143.8983088999521,,,,,,,,,,,143.88422989996616,145.16613280004822,,,,812433,001,2024-05-06_17h02.02.874,creatingimagesNEW,2024.1.1,None,2024-05-06 17h02.08.396823 -0400,
"(-0.1875, 0.1875)",g,0.0,,,,,2,14,62,7,145.18180969997775,,,,,,,,,,,145.16655890003312,148.43558469996788,,,,812433,001,2024-05-06_17h02.02.874,creatingimagesNEW,2024.1.1,None,2024-05-06 17h02.08.396823 -0400,
"(-0.1875, 0.1875)",p,0.0,,,,,2,15,63,23,148.44834979996085,,,,,,,,,,,148.43600850005168,149.7008053000318,,,,812433,001,2024-05-06_17h02.02.874,creatingimagesNEW,2024.1.1,None,2024-05-06 17h02.08.396823 -0400,
"(0.1875, 0.1875)",p,0.0,,,,,2,16,64,17,149.71530419995543,,,,,,,,,,,149.70126999996137,150.98295299999882,,,,812433,001,2024-05-06_17h02.02.874,creatingimagesNEW,2024.1.1,None,2024-05-06 17h02.08.396823 -0400,
"(0, 0.25)",p,0.0,,,,,2,17,65,16,150.99912960000802,,,,,,,,,,,150.98335550003685,152.26778190000914,,,,812433,001,2024-05-06_17h02.02.874,creatingimagesNEW,2024.1.1,None,2024-05-06 17h02.08.396823 -0400,
"(0.25, 0)",g,"(0, 0.25)",,,,,2,18,66,10,152.2820750999963,,,,,,,,,,,152.2681380000431,153.53301829996053,,,,812433,001,2024-05-06_17h02.02.874,creatingimagesNEW,2024.1.1,None,2024-05-06 17h02.08.396823 -0400,
"(0.1875, 0.1875)",g,0.0,,,,,2,19,67,1,153.54901980003342,,,,,,,,,,,153.53338919999078,154.80002399999648,,,,812433,001,2024-05-06_17h02.02.874,creatingimagesNEW,2024.1.1,None,2024-05-06 17h02.08.396823 -0400,
"(-0.25, 0)",p,0.0,,,,,2,20,68,22,154.8161913000513,,,,,,,,,,,154.80044410005212,156.06623440003023,,,,812433,001,2024-05-06_17h02.02.874,creatingimagesNEW,2024.1.1,None,2024-05-06 17h02.08.396823 -0400,
"(-0.25, 0)",g,"(0.1875, -0.1875)",,,,,2,21,69,14,156.0827003000304,,,,,,,,,,,156.06654969998635,158.33465470001101,,,,812433,001,2024-05-06_17h02.02.874,creatingimagesNEW,2024.1.1,None,2024-05-06 17h02.08.396823 -0400,
"(0.1875, -0.1875)",p,0.0,,,,,2,22,70,19,158.3490159000503,,,,,,,,,,,158.3350537000224,159.5999208999565,,,,812433,001,2024-05-06_17h02.02.874,creatingimagesNEW,2024.1.1,None,2024-05-06 17h02.08.396823 -0400,
"(-0.1875, -0.1875)",g,0.0,,,,,2,23,71,5,159.6158076999709,,,,,,,,,,,159.6002134999726,160.86823759996332,,,,812433,001,2024-05-06_17h02.02.874,creatingimagesNEW,2024.1.1,None,2024-05-06 17h02.08.396823 -0400,
,,,,,,,,,,,,,,,,,,,,,,,,160.86833019996993,160.8828296000138,160.8828296000138,,,,,,,,
