triangle_pos,triangle_color,pink_circle_pos,red_circle_pos,blue_circle_pos,test_trial_before_experiment.thisRepN,test_trial_before_experiment.thisTrialN,test_trial_before_experiment.thisN,test_trial_before_experiment.thisIndex,trials.thisRepN,trials.thisTrialN,trials.thisN,trials.thisIndex,thisRow.t,notes,Welcome_Page.started,textWelcomePage.started,key_resp.started,Welcome_Page.stopped,key_resp.keys,key_resp.rt,key_resp.duration,Test_Trial_routine_instructions.started,text.started,key_resp_3.started,Test_Trial_routine_instructions.stopped,key_resp_3.keys,key_resp_3.rt,key_resp_3.duration,test_trial.started,test_trial.stopped,Actual_Trial_Instructions.started,actual_trial_intructions.started,key_resp_4.started,Actual_Trial_Instructions.stopped,key_resp_4.keys,key_resp_4.rt,key_resp_4.duration,code_attempt.started,code_attempt.stopped,End_Routine.started,End_Text.started,key_resp_2.started,End_Routine.stopped,key_resp_2.keys,key_resp_2.rt,key_resp_2.duration,participant,session,date,expName,psychopyVersion,frameRate,expStart,
,,,,,,,,,,,,,,,0.028865000000223517,0.04964879195904359,1.9970918749459088,3.5575056249508634,space,1.5532917089876719,None,,,,,,,,,,,,,,,,,,,,,,,,,,851771,001,2024-05-08_13h15.10.301,creatingimagesNEW,2024.1.4,None,2024-05-08 13h15.16.459232 -0400,
,,,,,,,,,,,,,,,,,,,,,,3.5575502919964492,3.578639333951287,4.556153624958824,6.082256208988838,space,1.5244768749689683,None,,,,,,,,,,,,,,,,,,,851771,001,2024-05-08_13h15.10.301,creatingimagesNEW,2024.1.4,None,2024-05-08 13h15.16.459232 -0400,
"(-0.25, 0)",p,0.0,,,0,0,0,5,,,,,6.171188458974939,,,,,,,,,,,,,,,,6.154622374975588,7.138314166979399,,,,,,,,,,,,,,,,,851771,001,2024-05-08_13h15.10.301,creatingimagesNEW,2024.1.4,None,2024-05-08 13h15.16.459232 -0400,
"(0, 0.25)",g,0.0,,,0,1,1,0,,,,,7.1448677919688635,,,,,,,,,,,,,,,,7.138481999980286,8.00634954200359,,,,,,,,,,,,,,,,,851771,001,2024-05-08_13h15.10.301,creatingimagesNEW,2024.1.4,None,2024-05-08 13h15.16.459232 -0400,
"(-0.25, 0)",g,"(0.25, 0)",,,0,2,2,8,,,,,8.013164167001378,,,,,,,,,,,,,,,,8.00650554196909,9.174969041952863,,,,,,,,,,,,,,,,,851771,001,2024-05-08_13h15.10.301,creatingimagesNEW,2024.1.4,None,2024-05-08 13h15.16.459232 -0400,
"(0.25, 0)",g,"(-0.1875, -0.1875)",,,0,3,3,6,,,,,9.181540749967098,,,,,,,,,,,,,,,,9.175127666967455,10.243590208992828,,,,,,,,,,,,,,,,,851771,001,2024-05-08_13h15.10.301,creatingimagesNEW,2024.1.4,None,2024-05-08 13h15.16.459232 -0400,
"(0.25, 0)",g,0.0,,,0,4,4,2,,,,,10.25007408397505,,,,,,,,,,,,,,,,10.243755999952555,11.411879874998704,,,,,,,,,,,,,,,,,851771,001,2024-05-08_13h15.10.301,creatingimagesNEW,2024.1.4,None,2024-05-08 13h15.16.459232 -0400,
"(-0.1875, 0.1875)",g,"(-0.25, 0)",,,0,5,5,7,,,,,11.4184855420026,,,,,,,,,,,,,,,,11.412038624985144,12.480018749949522,,,,,,,,,,,,,,,,,851771,001,2024-05-08_13h15.10.301,creatingimagesNEW,2024.1.4,None,2024-05-08 13h15.16.459232 -0400,
"(-0.1875, -0.1875)",p,0.0,,,0,6,6,4,,,,,12.48666333395522,,,,,,,,,,,,,,,,12.480190583970398,13.448114291997626,,,,,,,,,,,,,,,,,851771,001,2024-05-08_13h15.10.301,creatingimagesNEW,2024.1.4,None,2024-05-08 13h15.16.459232 -0400,
"(0.1875, -0.1875)",p,0.0,,,0,7,7,3,,,,,13.454624874982983,,,,,,,,,,,,,,,,13.448282291996293,14.415958208963275,,,,,,,,,,,,,,,,,851771,001,2024-05-08_13h15.10.301,creatingimagesNEW,2024.1.4,None,2024-05-08 13h15.16.459232 -0400,
"(0.1875, 0.1875)",g,0.0,,,0,8,8,1,,,,,14.422431249986403,,,,,,,,,,,,,,,,14.416119958972558,15.583863999985624,,,,,,,,,,,,,,,,,851771,001,2024-05-08_13h15.10.301,creatingimagesNEW,2024.1.4,None,2024-05-08 13h15.16.459232 -0400,
"(0.25, 0)",g,"(-0.1875, -0.1875)",,,1,0,9,6,,,,,15.590474875003565,,,,,,,,,,,,,,,,15.584025541960727,16.652604374976363,,,,,,,,,,,,,,,,,851771,001,2024-05-08_13h15.10.301,creatingimagesNEW,2024.1.4,None,2024-05-08 13h15.16.459232 -0400,
"(0, 0.25)",g,0.0,,,1,1,10,0,,,,,16.659939374949317,,,,,,,,,,,,,,,,16.652773708978202,17.722551624989137,,,,,,,,,,,,,,,,,851771,001,2024-05-08_13h15.10.301,creatingimagesNEW,2024.1.4,None,2024-05-08 13h15.16.459232 -0400,
"(-0.1875, 0.1875)",g,"(-0.25, 0)",,,1,2,11,7,,,,,17.729205999989063,,,,,,,,,,,,,,,,17.72272024996346,18.89105237496551,,,,,,,,,,,,,,,,,851771,001,2024-05-08_13h15.10.301,creatingimagesNEW,2024.1.4,None,2024-05-08 13h15.16.459232 -0400,
"(0.1875, 0.1875)",g,0.0,,,1,3,12,1,,,,,18.897521999955643,,,,,,,,,,,,,,,,18.89122041699011,19.858241791953333,,,,,,,,,,,,,,,,,851771,001,2024-05-08_13h15.10.301,creatingimagesNEW,2024.1.4,None,2024-05-08 13h15.16.459232 -0400,
"(-0.1875, -0.1875)",p,0.0,,,1,4,13,4,,,,,19.864946333982516,,,,,,,,,,,,,,,,19.858402541955,20.7262086669798,,,,,,,,,,,,,,,,,851771,001,2024-05-08_13h15.10.301,creatingimagesNEW,2024.1.4,None,2024-05-08 13h15.16.459232 -0400,
"(0.1875, -0.1875)",p,0.0,,,1,5,14,3,,,,,20.732576749986038,,,,,,,,,,,,,,,,20.72637283394579,21.694703416957054,,,,,,,,,,,,,,,,,851771,001,2024-05-08_13h15.10.301,creatingimagesNEW,2024.1.4,None,2024-05-08 13h15.16.459232 -0400,
"(0.25, 0)",g,0.0,,,1,6,15,2,,,,,21.70175637496868,,,,,,,,,,,,,,,,21.694874249980785,22.66372254199814,,,,,,,,,,,,,,,,,851771,001,2024-05-08_13h15.10.301,creatingimagesNEW,2024.1.4,None,2024-05-08 13h15.16.459232 -0400,
"(-0.25, 0)",g,"(0.25, 0)",,,1,7,16,8,,,,,22.670366999984253,,,,,,,,,,,,,,,,22.663882791996002,23.832586833974347,,,,,,,,,,,,,,,,,851771,001,2024-05-08_13h15.10.301,creatingimagesNEW,2024.1.4,None,2024-05-08 13h15.16.459232 -0400,
"(-0.25, 0)",p,0.0,,,1,8,17,5,,,,,23.839254374965094,,,,,,,,,,,,,,,,23.832748916989658,24.90151837497251,,,,,,,,,,,,,,,,,851771,001,2024-05-08_13h15.10.301,creatingimagesNEW,2024.1.4,None,2024-05-08 13h15.16.459232 -0400,
"(0, 0.25)",g,0.0,,,2,0,18,0,,,,,24.90808629198,,,,,,,,,,,,,,,,24.901688541984186,25.76988874998642,,,,,,,,,,,,,,,,,851771,001,2024-05-08_13h15.10.301,creatingimagesNEW,2024.1.4,None,2024-05-08 13h15.16.459232 -0400,
"(-0.25, 0)",p,0.0,,,2,1,19,5,,,,,25.776671374973375,,,,,,,,,,,,,,,,25.770054333959706,26.73858070897404,,,,,,,,,,,,,,,,,851771,001,2024-05-08_13h15.10.301,creatingimagesNEW,2024.1.4,None,2024-05-08 13h15.16.459232 -0400,
"(0.25, 0)",g,"(-0.1875, -0.1875)",,,2,2,20,6,,,,,26.745440333965234,,,,,,,,,,,,,,,,26.738739499996882,27.707032208971214,,,,,,,,,,,,,,,,,851771,001,2024-05-08_13h15.10.301,creatingimagesNEW,2024.1.4,None,2024-05-08 13h15.16.459232 -0400,
"(-0.1875, 0.1875)",g,"(-0.25, 0)",,,2,3,21,7,,,,,27.71338641695911,,,,,,,,,,,,,,,,27.70719200000167,28.674746583972592,,,,,,,,,,,,,,,,,851771,001,2024-05-08_13h15.10.301,creatingimagesNEW,2024.1.4,None,2024-05-08 13h15.16.459232 -0400,
"(-0.1875, -0.1875)",p,0.0,,,2,4,22,4,,,,,28.681359083973803,,,,,,,,,,,,,,,,28.674925458966754,29.643163958971854,,,,,,,,,,,,,,,,,851771,001,2024-05-08_13h15.10.301,creatingimagesNEW,2024.1.4,None,2024-05-08 13h15.16.459232 -0400,
"(-0.25, 0)",g,"(0.25, 0)",,,2,5,23,8,,,,,29.65000154200243,,,,,,,,,,,,,,,,29.643421083979774,30.61178687500069,,,,,,,,,,,,,,,,,851771,001,2024-05-08_13h15.10.301,creatingimagesNEW,2024.1.4,None,2024-05-08 13h15.16.459232 -0400,
"(0.1875, -0.1875)",p,0.0,,,2,6,24,3,,,,,30.618190374982078,,,,,,,,,,,,,,,,30.611967791977804,31.779340916953515,,,,,,,,,,,,,,,,,851771,001,2024-05-08_13h15.10.301,creatingimagesNEW,2024.1.4,None,2024-05-08 13h15.16.459232 -0400,
"(0.1875, 0.1875)",g,0.0,,,2,7,25,1,,,,,31.785864874953404,,,,,,,,,,,,,,,,31.779499541968107,32.84758820896968,,,,,,,,,,,,,,,,,851771,001,2024-05-08_13h15.10.301,creatingimagesNEW,2024.1.4,None,2024-05-08 13h15.16.459232 -0400,
"(0.25, 0)",g,0.0,,,2,8,26,2,,,,,32.85416495898971,,,,,,,,,,,,,,,,32.84777483396465,33.91556729195872,,,,,,,,,,,,,,,,,851771,001,2024-05-08_13h15.10.301,creatingimagesNEW,2024.1.4,None,2024-05-08 13h15.16.459232 -0400,
,,,,,,,,,,,,,,,,,,,,,,,,,,,,,,,33.91562041698489,33.92192679195432,34.91539333399851,35.7492993749911,space,0.8286974579677917,None,,,,,,,,,,851771,001,2024-05-08_13h15.10.301,creatingimagesNEW,2024.1.4,None,2024-05-08 13h15.16.459232 -0400,
"(0, -0.25)",g,,0.0,"(0.1875, 0.1875)",,,,,0,0,0,36,35.786964958999306,,,,,,,,,,,,,,,,,,,,,,,,,35.7785652919556,36.84921962500084,,,,,,,,851771,001,2024-05-08_13h15.10.301,creatingimagesNEW,2024.1.4,None,2024-05-08 13h15.16.459232 -0400,
"(-0.25, 0)",r,,0.0,0.0,,,,,0,1,1,22,36.85576420900179,,,,,,,,,,,,,,,,,,,,,,,,,36.849367666989565,37.919343291956466,,,,,,,,851771,001,2024-05-08_13h15.10.301,creatingimagesNEW,2024.1.4,None,2024-05-08 13h15.16.459232 -0400,
"(-0.25, 0)",g,,0.0,0.0,,,,,0,2,2,6,37.92678895895369,,,,,,,,,,,,,,,,,,,,,,,,,37.91949254198698,38.98866566695506,,,,,,,,851771,001,2024-05-08_13h15.10.301,creatingimagesNEW,2024.1.4,None,2024-05-08 13h15.16.459232 -0400,
"(0, -0.25)",b,,0.0,0.0,,,,,0,3,3,44,38.99545920896344,,,,,,,,,,,,,,,,,,,,,,,,,38.98888720897958,39.859133291989565,,,,,,,,851771,001,2024-05-08_13h15.10.301,creatingimagesNEW,2024.1.4,None,2024-05-08 13h15.16.459232 -0400,
"(0, 0.25)",g,,0.0,0.0,,,,,0,4,4,0,39.86548108397983,,,,,,,,,,,,,,,,,,,,,,,,,39.859293708985206,40.82717912498629,,,,,,,,851771,001,2024-05-08_13h15.10.301,creatingimagesNEW,2024.1.4,None,2024-05-08 13h15.16.459232 -0400,
"(0.1875, 0.1875)",b,,0.0,0.0,,,,,0,5,5,41,40.83350770897232,,,,,,,,,,,,,,,,,,,,,,,,,40.827324333949946,41.79501916695153,,,,,,,,851771,001,2024-05-08_13h15.10.301,creatingimagesNEW,2024.1.4,None,2024-05-08 13h15.16.459232 -0400,
"(0.25, 0)",g,,0.0,"(-0.1875, 0.1875)",,,,,0,6,6,34,41.8016078749788,,,,,,,,,,,,,,,,,,,,,,,,,41.7951738339616,42.863825334003195,,,,,,,,851771,001,2024-05-08_13h15.10.301,creatingimagesNEW,2024.1.4,None,2024-05-08 13h15.16.459232 -0400,
"(0.25, 0)",g,,0.0,0.0,,,,,0,7,7,2,42.87054612499196,,,,,,,,,,,,,,,,,,,,,,,,,42.863984624971636,44.032669791951776,,,,,,,,851771,001,2024-05-08_13h15.10.301,creatingimagesNEW,2024.1.4,None,2024-05-08 13h15.16.459232 -0400,
"(0.25, 0)",b,,0.0,0.0,,,,,0,8,8,42,44.03921812499175,,,,,,,,,,,,,,,,,,,,,,,,,44.03284741699463,44.90112695895368,,,,,,,,851771,001,2024-05-08_13h15.10.301,creatingimagesNEW,2024.1.4,None,2024-05-08 13h15.16.459232 -0400,
None,None,,None,None,,,,,0,9,9,63,44.90793200000189,,,,,,,,,,,,,,,,,,,,,,,,,44.901269916968886,45.16863920894684,,,,,,,,851771,001,2024-05-08_13h15.10.301,creatingimagesNEW,2024.1.4,None,2024-05-08 13h15.16.459232 -0400,
"(0.25, 0)",b,,0.0,"(-0.1875, 0.1875)",,,,,0,10,10,50,45.17651970899897,,,,,,,,,,,,,,,,,,,,,,,,,45.168827041983604,46.63878974999534,,,,,,,,851771,001,2024-05-08_13h15.10.301,creatingimagesNEW,2024.1.4,None,2024-05-08 13h15.16.459232 -0400,
"(0.1875, 0.1875)",b,,0.0,"(0, -0.25)",,,,,0,11,11,49,46.648692499962635,,,,,,,,,,,,,,,,,,,,,,,,,46.6389497499913,47.71078108396614,,,,,,,,851771,001,2024-05-08_13h15.10.301,creatingimagesNEW,2024.1.4,None,2024-05-08 13h15.16.459232 -0400,
"(-0.1875, -0.1875)",b,,0.0,0.0,,,,,0,12,12,45,47.717276708979625,,,,,,,,,,,,,,,,,,,,,,,,,47.71093541698065,48.67869879194768,,,,,,,,851771,001,2024-05-08_13h15.10.301,creatingimagesNEW,2024.1.4,None,2024-05-08 13h15.16.459232 -0400,
"(0.1875, 0.1875)",g,,0.0,0.0,,,,,0,13,13,1,48.68528595898533,,,,,,,,,,,,,,,,,,,,,,,,,48.67884733399842,49.83196479198523,,,,,,,,851771,001,2024-05-08_13h15.10.301,creatingimagesNEW,2024.1.4,None,2024-05-08 13h15.16.459232 -0400,
"(-0.25, 0)",g,,0.0,"(0.1875, -0.1875)",,,,,0,14,14,38,49.83836962498026,,,,,,,,,,,,,,,,,,,,,,,,,49.832123458967544,50.79946812498383,,,,,,,,851771,001,2024-05-08_13h15.10.301,creatingimagesNEW,2024.1.4,None,2024-05-08 13h15.16.459232 -0400,
"(0, 0.25)",b,,0.0,0.0,,,,,0,15,15,40,50.80578933400102,,,,,,,,,,,,,,,,,,,,,,,,,50.79962299996987,51.867576249991544,,,,,,,,851771,001,2024-05-08_13h15.10.301,creatingimagesNEW,2024.1.4,None,2024-05-08 13h15.16.459232 -0400,
"(-0.1875, 0.1875)",r,,"(0.25, 0)",0.0,,,,,0,16,16,31,51.87414070899831,,,,,,,,,,,,,,,,,,,,,,,,,51.86772212496726,52.936133291979786,,,,,,,,851771,001,2024-05-08_13h15.10.301,creatingimagesNEW,2024.1.4,None,2024-05-08 13h15.16.459232 -0400,
"(0.1875, -0.1875)",g,,0.0,"(-0.25, 0)",,,,,0,17,17,35,52.94292083400069,,,,,,,,,,,,,,,,,,,,,,,,,52.93630474997917,54.1053669169778,,,,,,,,851771,001,2024-05-08_13h15.10.301,creatingimagesNEW,2024.1.4,None,2024-05-08 13h15.16.459232 -0400,
"(0, 0.25)",r,,0.0,0.0,,,,,0,18,18,16,54.11208283394808,,,,,,,,,,,,,,,,,,,,,,,,,54.10556266695494,55.1735649589682,,,,,,,,851771,001,2024-05-08_13h15.10.301,creatingimagesNEW,2024.1.4,None,2024-05-08 13h15.16.459232 -0400,
"(-0.1875, 0.1875)",g,,0.0,0.0,,,,,0,19,19,7,55.18036554194987,,,,,,,,,,,,,,,,,,,,,,,,,55.17372854199493,56.64314366696635,,,,,,,,851771,001,2024-05-08_13h15.10.301,creatingimagesNEW,2024.1.4,None,2024-05-08 13h15.16.459232 -0400,
"(-0.1875, 0.1875)",g,,"(0.25, 0)",0.0,,,,,0,20,20,15,56.65430895896861,,,,,,,,,,,,,,,,,,,,,,,,,56.64332549995743,58.02359791699564,,,,,,,,851771,001,2024-05-08_13h15.10.301,creatingimagesNEW,2024.1.4,None,2024-05-08 13h15.16.459232 -0400,
"(0, 0.25)",g,,"(-0.1875, -0.1875)",0.0,,,,,0,21,21,8,58.0306533749681,,,,,,,,,,,,,,,,,,,,,,,,,58.023859291977715,59.49403545894893,,,,,,,,851771,001,2024-05-08_13h15.10.301,creatingimagesNEW,2024.1.4,None,2024-05-08 13h15.16.459232 -0400,
"(0.1875, -0.1875)",b,,0.0,"(-0.25, 0)",,,,,0,22,22,51,59.50410808395827,,,,,,,,,,,,,,,,,,,,,,,,,59.49425633397186,60.96663516695844,,,,,,,,851771,001,2024-05-08_13h15.10.301,creatingimagesNEW,2024.1.4,None,2024-05-08 13h15.16.459232 -0400,
"(-0.1875, -0.1875)",g,,0.0,"(0, 0.25)",,,,,0,23,23,37,60.975947416969575,,,,,,,,,,,,,,,,,,,,,,,,,60.96679649996804,62.438684291963,,,,,,,,851771,001,2024-05-08_13h15.10.301,creatingimagesNEW,2024.1.4,None,2024-05-08 13h15.16.459232 -0400,
"(-0.1875, 0.1875)",b,,0.0,0.0,,,,,0,24,24,47,62.446757291967515,,,,,,,,,,,,,,,,,,,,,,,,,62.438843166979495,63.60919849999482,,,,,,,,851771,001,2024-05-08_13h15.10.301,creatingimagesNEW,2024.1.4,None,2024-05-08 13h15.16.459232 -0400,
"(-0.1875, 0.1875)",r,,0.0,0.0,,,,,0,25,25,23,63.61588620895054,,,,,,,,,,,,,,,,,,,,,,,,,63.60935412498657,64.97828808397753,,,,,,,,851771,001,2024-05-08_13h15.10.301,creatingimagesNEW,2024.1.4,None,2024-05-08 13h15.16.459232 -0400,
"(0.25, 0)",r,,0.0,0.0,,,,,0,26,26,18,64.98711499996716,,,,,,,,,,,,,,,,,,,,,,,,,64.97844916698523,66.15029666695045,,,,,,,,851771,001,2024-05-08_13h15.10.301,creatingimagesNEW,2024.1.4,None,2024-05-08 13h15.16.459232 -0400,
"(0.1875, 0.1875)",g,,"(0, -0.25)",0.0,,,,,0,27,27,9,66.15673304197844,,,,,,,,,,,,,,,,,,,,,,,,,66.15046091697877,67.51980954199098,,,,,,,,851771,001,2024-05-08_13h15.10.301,creatingimagesNEW,2024.1.4,None,2024-05-08 13h15.16.459232 -0400,
"(-0.25, 0)",b,,0.0,0.0,,,,,0,28,28,46,67.52954270900227,,,,,,,,,,,,,,,,,,,,,,,,,67.51996783399954,68.49202704196796,,,,,,,,851771,001,2024-05-08_13h15.10.301,creatingimagesNEW,2024.1.4,None,2024-05-08 13h15.16.459232 -0400,
"(-0.1875, 0.1875)",g,,0.0,"(0.25, 0)",,,,,0,29,29,39,68.49864004197298,,,,,,,,,,,,,,,,,,,,,,,,,68.49220187496394,69.66078854195075,,,,,,,,851771,001,2024-05-08_13h15.10.301,creatingimagesNEW,2024.1.4,None,2024-05-08 13h15.16.459232 -0400,
"(0, 0.25)",g,,0.0,"(-0.1875, -0.1875)",,,,,0,30,30,32,69.6674608750036,,,,,,,,,,,,,,,,,,,,,,,,,69.66094866697676,70.83002070896327,,,,,,,,851771,001,2024-05-08_13h15.10.301,creatingimagesNEW,2024.1.4,None,2024-05-08 13h15.16.459232 -0400,
"(-0.25, 0)",r,,"(0.1875, -0.1875)",0.0,,,,,0,31,31,30,70.8365638749674,,,,,,,,,,,,,,,,,,,,,,,,,70.83018087496748,71.99877183395438,,,,,,,,851771,001,2024-05-08_13h15.10.301,creatingimagesNEW,2024.1.4,None,2024-05-08 13h15.16.459232 -0400,
None,None,,None,None,,,,,0,32,32,57,72.00503895897418,,,,,,,,,,,,,,,,,,,,,,,,,71.99892008397728,72.2661592089571,,,,,,,,851771,001,2024-05-08_13h15.10.301,creatingimagesNEW,2024.1.4,None,2024-05-08 13h15.16.459232 -0400,
"(0.1875, -0.1875)",r,,0.0,0.0,,,,,0,33,33,19,72.27253412496066,,,,,,,,,,,,,,,,,,,,,,,,,72.2663478749455,73.43409170897212,,,,,,,,851771,001,2024-05-08_13h15.10.301,creatingimagesNEW,2024.1.4,None,2024-05-08 13h15.16.459232 -0400,
"(0.1875, 0.1875)",r,,0.0,0.0,,,,,0,34,34,17,73.44086554198293,,,,,,,,,,,,,,,,,,,,,,,,,73.43425112497061,74.70314545900328,,,,,,,,851771,001,2024-05-08_13h15.10.301,creatingimagesNEW,2024.1.4,None,2024-05-08 13h15.16.459232 -0400,
"(0.25, 0)",g,,"(-0.1875, 0.1875)",0.0,,,,,0,35,35,10,74.70993837498827,,,,,,,,,,,,,,,,,,,,,,,,,74.70331424998585,76.1722196249757,,,,,,,,851771,001,2024-05-08_13h15.10.301,creatingimagesNEW,2024.1.4,None,2024-05-08 13h15.16.459232 -0400,
"(0, -0.25)",g,,"(0.1875, 0.1875)",0.0,,,,,0,36,36,12,76.18126070895232,,,,,,,,,,,,,,,,,,,,,,,,,76.1724012499908,77.24358529195888,,,,,,,,851771,001,2024-05-08_13h15.10.301,creatingimagesNEW,2024.1.4,None,2024-05-08 13h15.16.459232 -0400,
"(0.25, 0)",r,,"(-0.1875, 0.1875)",0.0,,,,,0,37,37,26,77.24993420898682,,,,,,,,,,,,,,,,,,,,,,,,,77.24373962497339,78.41217495896854,,,,,,,,851771,001,2024-05-08_13h15.10.301,creatingimagesNEW,2024.1.4,None,2024-05-08 13h15.16.459232 -0400,
None,None,,None,None,,,,,0,38,38,60,78.41874458396342,,,,,,,,,,,,,,,,,,,,,,,,,78.41233070899034,78.68011754198233,,,,,,,,851771,001,2024-05-08_13h15.10.301,creatingimagesNEW,2024.1.4,None,2024-05-08 13h15.16.459232 -0400,
"(0, -0.25)",b,,0.0,"(0.1875, 0.1875)",,,,,0,39,39,52,78.68633962498279,,,,,,,,,,,,,,,,,,,,,,,,,78.6803307919763,79.84748641698388,,,,,,,,851771,001,2024-05-08_13h15.10.301,creatingimagesNEW,2024.1.4,None,2024-05-08 13h15.16.459232 -0400,
"(0.1875, -0.1875)",r,,"(-0.25, 0)",0.0,,,,,0,40,40,27,79.85401695896871,,,,,,,,,,,,,,,,,,,,,,,,,79.84763649996603,81.11630970897386,,,,,,,,851771,001,2024-05-08_13h15.10.301,creatingimagesNEW,2024.1.4,None,2024-05-08 13h15.16.459232 -0400,
"(-0.1875, -0.1875)",b,,0.0,"(0, 0.25)",,,,,0,41,41,53,81.12292091699783,,,,,,,,,,,,,,,,,,,,,,,,,81.11647558398545,82.48580299998866,,,,,,,,851771,001,2024-05-08_13h15.10.301,creatingimagesNEW,2024.1.4,None,2024-05-08 13h15.16.459232 -0400,
"(-0.1875, 0.1875)",b,,0.0,"(0.25, 0)",,,,,0,42,42,55,82.4922517919913,,,,,,,,,,,,,,,,,,,,,,,,,82.48595874995226,83.8544863749994,,,,,,,,851771,001,2024-05-08_13h15.10.301,creatingimagesNEW,2024.1.4,None,2024-05-08 13h15.16.459232 -0400,
"(0.1875, -0.1875)",g,,0.0,0.0,,,,,0,43,43,3,83.86118858394912,,,,,,,,,,,,,,,,,,,,,,,,,83.85464337497251,85.22366695897654,,,,,,,,851771,001,2024-05-08_13h15.10.301,creatingimagesNEW,2024.1.4,None,2024-05-08 13h15.16.459232 -0400,
"(-0.25, 0)",b,,0.0,"(0.1875, -0.1875)",,,,,0,44,44,54,85.23366045899456,,,,,,,,,,,,,,,,,,,,,,,,,85.22382766695227,86.49596933397697,,,,,,,,851771,001,2024-05-08_13h15.10.301,creatingimagesNEW,2024.1.4,None,2024-05-08 13h15.16.459232 -0400,
"(0.1875, -0.1875)",g,,"(-0.25, 0)",0.0,,,,,0,45,45,11,86.50279487494845,,,,,,,,,,,,,,,,,,,,,,,,,86.49612945900299,88.56643062498188,,,,,,,,851771,001,2024-05-08_13h15.10.301,creatingimagesNEW,2024.1.4,None,2024-05-08 13h15.16.459232 -0400,
"(-0.1875, -0.1875)",r,,0.0,0.0,,,,,0,46,46,21,88.57580204197438,,,,,,,,,,,,,,,,,,,,,,,,,88.56658824998885,89.83819862495875,,,,,,,,851771,001,2024-05-08_13h15.10.301,creatingimagesNEW,2024.1.4,None,2024-05-08 13h15.16.459232 -0400,
None,None,,None,None,,,,,0,47,47,61,89.84696195897413,,,,,,,,,,,,,,,,,,,,,,,,,89.83834933396429,90.10771999997087,,,,,,,,851771,001,2024-05-08_13h15.10.301,creatingimagesNEW,2024.1.4,None,2024-05-08 13h15.16.459232 -0400,
"(0, -0.25)",r,,"(0.1875, 0.1875)",0.0,,,,,0,48,48,28,90.1159160839743,,,,,,,,,,,,,,,,,,,,,,,,,90.1079408749938,91.47791391698411,,,,,,,,851771,001,2024-05-08_13h15.10.301,creatingimagesNEW,2024.1.4,None,2024-05-08 13h15.16.459232 -0400,
"(0.1875, 0.1875)",g,,0.0,"(0, -0.25)",,,,,0,49,49,33,91.48782087495783,,,,,,,,,,,,,,,,,,,,,,,,,91.47807299997658,92.74956470896723,,,,,,,,851771,001,2024-05-08_13h15.10.301,creatingimagesNEW,2024.1.4,None,2024-05-08 13h15.16.459232 -0400,
"(0.1875, -0.1875)",b,,0.0,0.0,,,,,0,50,50,43,92.7560109589831,,,,,,,,,,,,,,,,,,,,,,,,,92.7497184589738,94.51881099998718,,,,,,,,851771,001,2024-05-08_13h15.10.301,creatingimagesNEW,2024.1.4,None,2024-05-08 13h15.16.459232 -0400,
"(-0.1875, -0.1875)",g,,0.0,0.0,,,,,0,51,51,5,94.52820066700224,,,,,,,,,,,,,,,,,,,,,,,,,94.51896495895926,95.69046679197345,,,,,,,,851771,001,2024-05-08_13h15.10.301,creatingimagesNEW,2024.1.4,None,2024-05-08 13h15.16.459232 -0400,
None,None,,None,None,,,,,0,52,52,59,95.69708637497388,,,,,,,,,,,,,,,,,,,,,,,,,95.69061437499477,95.95795449998695,,,,,,,,851771,001,2024-05-08_13h15.10.301,creatingimagesNEW,2024.1.4,None,2024-05-08 13h15.16.459232 -0400,
"(-0.1875, -0.1875)",r,,"(0, 0.25)",0.0,,,,,0,53,53,29,95.96705737494631,,,,,,,,,,,,,,,,,,,,,,,,,95.9581468339893,97.52899345895275,,,,,,,,851771,001,2024-05-08_13h15.10.301,creatingimagesNEW,2024.1.4,None,2024-05-08 13h15.16.459232 -0400,
None,None,,None,None,,,,,0,54,54,56,97.53794637497049,,,,,,,,,,,,,,,,,,,,,,,,,97.52914166694973,97.79956179199507,,,,,,,,851771,001,2024-05-08_13h15.10.301,creatingimagesNEW,2024.1.4,None,2024-05-08 13h15.16.459232 -0400,
"(-0.1875, -0.1875)",g,,"(0, 0.25)",0.0,,,,,0,55,55,13,97.8057363339467,,,,,,,,,,,,,,,,,,,,,,,,,97.79978137498256,99.26771862496389,,,,,,,,851771,001,2024-05-08_13h15.10.301,creatingimagesNEW,2024.1.4,None,2024-05-08 13h15.16.459232 -0400,
None,None,,None,None,,,,,0,56,56,62,99.27460408397019,,,,,,,,,,,,,,,,,,,,,,,,,99.26786958397133,99.53571387496777,,,,,,,,851771,001,2024-05-08_13h15.10.301,creatingimagesNEW,2024.1.4,None,2024-05-08 13h15.16.459232 -0400,
"(0, 0.25)",r,,"(-0.1875, -0.1875)",0.0,,,,,0,57,57,24,99.54195187496953,,,,,,,,,,,,,,,,,,,,,,,,,99.53593554196414,100.70363879197976,,,,,,,,851771,001,2024-05-08_13h15.10.301,creatingimagesNEW,2024.1.4,None,2024-05-08 13h15.16.459232 -0400,
"(0, 0.25)",b,,0.0,"(-0.1875, -0.1875)",,,,,0,58,58,48,100.71047874999931,,,,,,,,,,,,,,,,,,,,,,,,,100.70379845896969,102.0722733339644,,,,,,,,851771,001,2024-05-08_13h15.10.301,creatingimagesNEW,2024.1.4,None,2024-05-08 13h15.16.459232 -0400,
"(0.1875, 0.1875)",r,,"(0, -0.25)",0.0,,,,,0,59,59,25,102.07971904199803,,,,,,,,,,,,,,,,,,,,,,,,,102.07242920895806,103.24154879199341,,,,,,,,851771,001,2024-05-08_13h15.10.301,creatingimagesNEW,2024.1.4,None,2024-05-08 13h15.16.459232 -0400,
"(0, -0.25)",r,,0.0,0.0,,,,,0,60,60,20,103.24801224999828,,,,,,,,,,,,,,,,,,,,,,,,,103.24170587497065,104.40942729194649,,,,,,,,851771,001,2024-05-08_13h15.10.301,creatingimagesNEW,2024.1.4,None,2024-05-08 13h15.16.459232 -0400,
None,None,,None,None,,,,,0,61,61,58,104.41602462495212,,,,,,,,,,,,,,,,,,,,,,,,,104.4095826249686,104.6771074589924,,,,,,,,851771,001,2024-05-08_13h15.10.301,creatingimagesNEW,2024.1.4,None,2024-05-08 13h15.16.459232 -0400,
"(-0.25, 0)",g,,"(0.1875, -0.1875)",0.0,,,,,0,62,62,14,104.68538879195694,,,,,,,,,,,,,,,,,,,,,,,,,104.67734100000234,106.24698924995027,,,,,,,,851771,001,2024-05-08_13h15.10.301,creatingimagesNEW,2024.1.4,None,2024-05-08 13h15.16.459232 -0400,
"(0, -0.25)",g,,0.0,0.0,,,,,0,63,63,4,106.25616512499982,,,,,,,,,,,,,,,,,,,,,,,,,106.24713724997127,107.4183397499728,,,,,,,,851771,001,2024-05-08_13h15.10.301,creatingimagesNEW,2024.1.4,None,2024-05-08 13h15.16.459232 -0400,
,,,,,,,,,,,,,,,,,,,,,,,,,,,,,,,,,,,,,,,,107.41845154197654,107.42644650000148,107.42644650000148,108.30285941698821,space,0.8723391249659471,None,851771,001,2024-05-08_13h15.10.301,creatingimagesNEW,2024.1.4,None,2024-05-08 13h15.16.459232 -0400,
