triangle_pos,triangle_color,pink_circle_pos,blue_circle_pos,red_circle_pos,test_trial_before_experiment.thisRepN,test_trial_before_experiment.thisTrialN,test_trial_before_experiment.thisN,test_trial_before_experiment.thisIndex,trials.thisRepN,trials.thisTrialN,trials.thisN,trials.thisIndex,thisRow.t,notes,Welcome_Page.started,textWelcomePage.started,key_resp.started,Welcome_Page.stopped,key_resp.keys,key_resp.rt,key_resp.duration,Test_Trial_routine_instructions.started,text.started,key_resp_3.started,Test_Trial_routine_instructions.stopped,key_resp_3.keys,key_resp_3.rt,key_resp_3.duration,test_trial.started,test_trial.stopped,Actual_Trial_Instructions.started,actual_trial_intructions.started,key_resp_4.started,Actual_Trial_Instructions.stopped,key_resp_4.keys,key_resp_4.rt,key_resp_4.duration,Real_Trials.started,Real_Trials.stopped,End_Routine.started,End_Text.started,key_resp_2.started,End_Routine.stopped,key_resp_2.keys,key_resp_2.rt,key_resp_2.duration,participant,session,date,expName,psychopyVersion,frameRate,expStart,
,,,,,,,,,,,,,,,0.029967958995257504,0.044004625000525266,1.9986929169972427,5.983942167003988,space,3.9786927919922164,None,,,,,,,,,,,,,,,,,,,,,,,,,,915853,001,2024-05-12_00h27.20.449,creatingimagesNEW,2024.1.4,None,2024-05-12 00h27.26.955150 -0400,
,,,,,,,,,,,,,,,,,,,,,,5.984006708997185,6.008927083996241,6.983294292003848,8.100676083995495,space,1.1084449590125587,None,,,,,,,,,,,,,,,,,,,915853,001,2024-05-12_00h27.20.449,creatingimagesNEW,2024.1.4,None,2024-05-12 00h27.26.955150 -0400,
"(-0.1875, -0.1875)",r,0.0,0.0,,0,0,0,4,,,,,8.219848833992728,,,,,,,,,,,,,,,,8.180447209000704,9.38819495899952,,,,,,,,,,,,,,,,,915853,001,2024-05-12_00h27.20.449,creatingimagesNEW,2024.1.4,None,2024-05-12 00h27.26.955150 -0400,
"(0.1875, -0.1875)",r,0.0,0.0,,0,1,1,3,,,,,9.395456583995838,,,,,,,,,,,,,,,,9.388367084000492,10.357176874997094,,,,,,,,,,,,,,,,,915853,001,2024-05-12_00h27.20.449,creatingimagesNEW,2024.1.4,None,2024-05-12 00h27.26.955150 -0400,
"(0, 0.25)",b,0.0,"(0, -0.25)",,0,2,2,18,,,,,10.363965625001583,,,,,,,,,,,,,,,,10.35733304200403,11.32542733399896,,,,,,,,,,,,,,,,,915853,001,2024-05-12_00h27.20.449,creatingimagesNEW,2024.1.4,None,2024-05-12 00h27.26.955150 -0400,
"(-0.1875, -0.1875)",g,0.0,"(-0.1875, 0.1875) ",,0,3,3,13,,,,,11.332065916998545,,,,,,,,,,,,,,,,11.325583291996736,12.393393042002572,,,,,,,,,,,,,,,,,915853,001,2024-05-12_00h27.20.449,creatingimagesNEW,2024.1.4,None,2024-05-12 00h27.26.955150 -0400,
"(0.25, 0)",g,"(-0.1875, -0.1875)",0.0,,0,4,4,6,,,,,12.399910416992498,,,,,,,,,,,,,,,,12.39355304199853,13.651298583994503,,,,,,,,,,,,,,,,,915853,001,2024-05-12_00h27.20.449,creatingimagesNEW,2024.1.4,None,2024-05-12 00h27.26.955150 -0400,
"(-0.25, 0)",g,"(0.25, 0)",0.0,,0,5,5,8,,,,,13.664384749994497,,,,,,,,,,,,,,,,13.651850084002945,14.925975833990378,,,,,,,,,,,,,,,,,915853,001,2024-05-12_00h27.20.449,creatingimagesNEW,2024.1.4,None,2024-05-12 00h27.26.955150 -0400,
"(-0.25, 0)",b,0.0,0.0,,0,6,6,17,,,,,14.932801292001386,,,,,,,,,,,,,,,,14.92613683399395,16.094491458992707,,,,,,,,,,,,,,,,,915853,001,2024-05-12_00h27.20.449,creatingimagesNEW,2024.1.4,None,2024-05-12 00h27.26.955150 -0400,
"(0.25, 0)",r,0.0,0.0,,0,7,7,11,,,,,16.10128341699601,,,,,,,,,,,,,,,,16.094650583996554,17.16327266699227,,,,,,,,,,,,,,,,,915853,001,2024-05-12_00h27.20.449,creatingimagesNEW,2024.1.4,None,2024-05-12 00h27.26.955150 -0400,
"(0.25, 0)",b,0.0,0.0,,0,8,8,15,,,,,17.16971649999323,,,,,,,,,,,,,,,,17.163430624990724,18.131427624990465,,,,,,,,,,,,,,,,,915853,001,2024-05-12_00h27.20.449,creatingimagesNEW,2024.1.4,None,2024-05-12 00h27.26.955150 -0400,
"(0, 0.25)",g,0.0,0.0,,0,9,9,0,,,,,18.137954459001776,,,,,,,,,,,,,,,,18.13158245899831,19.199727625004016,,,,,,,,,,,,,,,,,915853,001,2024-05-12_00h27.20.449,creatingimagesNEW,2024.1.4,None,2024-05-12 00h27.26.955150 -0400,
"(-0.25, 0)",r,0.0,0.0,,0,10,10,5,,,,,19.206146166994586,,,,,,,,,,,,,,,,19.199884000001475,20.26768337500107,,,,,,,,,,,,,,,,,915853,001,2024-05-12_00h27.20.449,creatingimagesNEW,2024.1.4,None,2024-05-12 00h27.26.955150 -0400,
"(-0.1875, 0.1875)",b,0.0,0.0,,0,11,11,16,,,,,20.274713334001717,,,,,,,,,,,,,,,,20.26785629199003,21.235584499998367,,,,,,,,,,,,,,,,,915853,001,2024-05-12_00h27.20.449,creatingimagesNEW,2024.1.4,None,2024-05-12 00h27.26.955150 -0400,
"(0.1875, 0.1875)",g,0.0,0.0,,0,12,12,1,,,,,21.242080374999205,,,,,,,,,,,,,,,,21.235742999997456,22.203652333992068,,,,,,,,,,,,,,,,,915853,001,2024-05-12_00h27.20.449,creatingimagesNEW,2024.1.4,None,2024-05-12 00h27.26.955150 -0400,
"(0.25, 0)",g,0.0,0.0,,0,13,13,2,,,,,22.21042329199554,,,,,,,,,,,,,,,,22.203809083992383,23.27207933399768,,,,,,,,,,,,,,,,,915853,001,2024-05-12_00h27.20.449,creatingimagesNEW,2024.1.4,None,2024-05-12 00h27.26.955150 -0400,
"(0, 0.25)",r,0.0,0.0,,0,14,14,9,,,,,23.27848612499656,,,,,,,,,,,,,,,,23.27223750000121,24.640547000002698,,,,,,,,,,,,,,,,,915853,001,2024-05-12_00h27.20.449,creatingimagesNEW,2024.1.4,None,2024-05-12 00h27.26.955150 -0400,
"(0.25, 0)",b,0.0,"(0.1875, -0.1875)",,0,15,15,20,,,,,24.64896916699945,,,,,,,,,,,,,,,,24.64070212499064,25.71067708400369,,,,,,,,,,,,,,,,,915853,001,2024-05-12_00h27.20.449,creatingimagesNEW,2024.1.4,None,2024-05-12 00h27.26.955150 -0400,
"(0.1875, 0.1875)",r,0.0,0.0,,0,16,16,10,,,,,25.71719458399457,,,,,,,,,,,,,,,,25.71084337499633,26.579241958999773,,,,,,,,,,,,,,,,,915853,001,2024-05-12_00h27.20.449,creatingimagesNEW,2024.1.4,None,2024-05-12 00h27.26.955150 -0400,
"(0.1875, -0.1875)",g,0.0,"(0.25, 0)",,0,17,17,12,,,,,26.58567916699394,,,,,,,,,,,,,,,,26.579395624998142,28.04800612499821,,,,,,,,,,,,,,,,,915853,001,2024-05-12_00h27.20.449,creatingimagesNEW,2024.1.4,None,2024-05-12 00h27.26.955150 -0400,
"(0.1875, 0.1875)",b,0.0,"(-0.1875, -0.1875)",,0,18,18,19,,,,,28.05458991699561,,,,,,,,,,,,,,,,28.048163667001063,29.01607845899707,,,,,,,,,,,,,,,,,915853,001,2024-05-12_00h27.20.449,creatingimagesNEW,2024.1.4,None,2024-05-12 00h27.26.955150 -0400,
"(-0.1875, 0.1875)",g,"(-0.25, 0)",0.0,,0,19,19,7,,,,,29.02284987499297,,,,,,,,,,,,,,,,29.016231292000157,30.285037666995777,,,,,,,,,,,,,,,,,915853,001,2024-05-12_00h27.20.449,creatingimagesNEW,2024.1.4,None,2024-05-12 00h27.26.955150 -0400,
"(-0.25, 0)",g,0.0,"(0.1875, 0.1875)",,0,20,20,14,,,,,30.29165012500016,,,,,,,,,,,,,,,,30.28519441699609,31.453016500003287,,,,,,,,,,,,,,,,,915853,001,2024-05-12_00h27.20.449,creatingimagesNEW,2024.1.4,None,2024-05-12 00h27.26.955150 -0400,
"(0.25, 0)",g,"(-0.1875, -0.1875)",0.0,,1,0,21,6,,,,,31.459502249999787,,,,,,,,,,,,,,,,31.453173208996304,32.62099062500056,,,,,,,,,,,,,,,,,915853,001,2024-05-12_00h27.20.449,creatingimagesNEW,2024.1.4,None,2024-05-12 00h27.26.955150 -0400,
"(-0.25, 0)",g,0.0,"(0.1875, 0.1875)",,1,1,22,14,,,,,32.62745824999001,,,,,,,,,,,,,,,,32.62114341699635,33.88936349999858,,,,,,,,,,,,,,,,,915853,001,2024-05-12_00h27.20.449,creatingimagesNEW,2024.1.4,None,2024-05-12 00h27.26.955150 -0400,
"(0.25, 0)",b,0.0,0.0,,1,2,23,15,,,,,33.89618883399817,,,,,,,,,,,,,,,,33.889541458993335,34.85728208399087,,,,,,,,,,,,,,,,,915853,001,2024-05-12_00h27.20.449,creatingimagesNEW,2024.1.4,None,2024-05-12 00h27.26.955150 -0400,
"(-0.1875, 0.1875)",g,"(-0.25, 0)",0.0,,1,3,24,7,,,,,34.86387454200303,,,,,,,,,,,,,,,,34.85744258399063,35.925875874992926,,,,,,,,,,,,,,,,,915853,001,2024-05-12_00h27.20.449,creatingimagesNEW,2024.1.4,None,2024-05-12 00h27.26.955150 -0400,
"(0, 0.25)",g,0.0,0.0,,1,4,25,0,,,,,35.932387084001675,,,,,,,,,,,,,,,,35.92603404200054,36.993726000000606,,,,,,,,,,,,,,,,,915853,001,2024-05-12_00h27.20.449,creatingimagesNEW,2024.1.4,None,2024-05-12 00h27.26.955150 -0400,
"(0.1875, 0.1875)",b,0.0,"(-0.1875, -0.1875)",,1,5,26,19,,,,,37.00016845899518,,,,,,,,,,,,,,,,36.99388279199775,38.06176404199505,,,,,,,,,,,,,,,,,915853,001,2024-05-12_00h27.20.449,creatingimagesNEW,2024.1.4,None,2024-05-12 00h27.26.955150 -0400,
"(-0.1875, -0.1875)",g,0.0,"(-0.1875, 0.1875) ",,1,6,27,13,,,,,38.06863887500367,,,,,,,,,,,,,,,,38.06192658399232,39.03002687499975,,,,,,,,,,,,,,,,,915853,001,2024-05-12_00h27.20.449,creatingimagesNEW,2024.1.4,None,2024-05-12 00h27.26.955150 -0400,
"(0.1875, -0.1875)",g,0.0,"(0.25, 0)",,1,7,28,12,,,,,39.03684762500052,,,,,,,,,,,,,,,,39.03018445899943,40.29859150000266,,,,,,,,,,,,,,,,,915853,001,2024-05-12_00h27.20.449,creatingimagesNEW,2024.1.4,None,2024-05-12 00h27.26.955150 -0400,
"(0, 0.25)",b,0.0,"(0, -0.25)",,1,8,29,18,,,,,40.30525495899201,,,,,,,,,,,,,,,,40.29874908400234,41.26693337499455,,,,,,,,,,,,,,,,,915853,001,2024-05-12_00h27.20.449,creatingimagesNEW,2024.1.4,None,2024-05-12 00h27.26.955150 -0400,
"(-0.1875, -0.1875)",r,0.0,0.0,,1,9,30,4,,,,,41.27324475000205,,,,,,,,,,,,,,,,41.26708591700299,42.434910333991866,,,,,,,,,,,,,,,,,915853,001,2024-05-12_00h27.20.449,creatingimagesNEW,2024.1.4,None,2024-05-12 00h27.26.955150 -0400,
"(0.1875, 0.1875)",r,0.0,0.0,,1,10,31,10,,,,,42.44148666699766,,,,,,,,,,,,,,,,42.43506462499499,43.40302437500213,,,,,,,,,,,,,,,,,915853,001,2024-05-12_00h27.20.449,creatingimagesNEW,2024.1.4,None,2024-05-12 00h27.26.955150 -0400,
"(-0.25, 0)",r,0.0,0.0,,1,11,32,5,,,,,43.40927016700152,,,,,,,,,,,,,,,,43.4031791669986,44.67108470899984,,,,,,,,,,,,,,,,,915853,001,2024-05-12_00h27.20.449,creatingimagesNEW,2024.1.4,None,2024-05-12 00h27.26.955150 -0400,
"(0.25, 0)",b,0.0,"(0.1875, -0.1875)",,1,12,33,20,,,,,44.6778157499939,,,,,,,,,,,,,,,,44.671247209000285,45.6394058750011,,,,,,,,,,,,,,,,,915853,001,2024-05-12_00h27.20.449,creatingimagesNEW,2024.1.4,None,2024-05-12 00h27.26.955150 -0400,
"(0.25, 0)",g,0.0,0.0,,1,13,34,2,,,,,45.64571395899111,,,,,,,,,,,,,,,,45.639560249997885,46.80744312499883,,,,,,,,,,,,,,,,,915853,001,2024-05-12_00h27.20.449,creatingimagesNEW,2024.1.4,None,2024-05-12 00h27.26.955150 -0400,
"(0.1875, 0.1875)",g,0.0,0.0,,1,14,35,1,,,,,46.817566458994406,,,,,,,,,,,,,,,,46.80759974999819,47.840342416995554,,,,,,,,,,,,,,,,,915853,001,2024-05-12_00h27.20.449,creatingimagesNEW,2024.1.4,None,2024-05-12 00h27.26.955150 -0400,
"(-0.25, 0)",g,"(0.25, 0)",0.0,,1,15,36,8,,,,,47.84674195900152,,,,,,,,,,,,,,,,47.8405036250042,48.90786208400095,,,,,,,,,,,,,,,,,915853,001,2024-05-12_00h27.20.449,creatingimagesNEW,2024.1.4,None,2024-05-12 00h27.26.955150 -0400,
"(0.1875, -0.1875)",r,0.0,0.0,,1,16,37,3,,,,,48.91428533400176,,,,,,,,,,,,,,,,48.908022042000084,50.07588224999199,,,,,,,,,,,,,,,,,915853,001,2024-05-12_00h27.20.449,creatingimagesNEW,2024.1.4,None,2024-05-12 00h27.26.955150 -0400,
"(-0.25, 0)",b,0.0,0.0,,1,17,38,17,,,,,50.082485708990134,,,,,,,,,,,,,,,,50.076049583993154,50.943589624992455,,,,,,,,,,,,,,,,,915853,001,2024-05-12_00h27.20.449,creatingimagesNEW,2024.1.4,None,2024-05-12 00h27.26.955150 -0400,
"(0.25, 0)",r,0.0,0.0,,1,18,39,11,,,,,50.95005791699805,,,,,,,,,,,,,,,,50.943741791998036,51.81101554199995,,,,,,,,,,,,,,,,,915853,001,2024-05-12_00h27.20.449,creatingimagesNEW,2024.1.4,None,2024-05-12 00h27.26.955150 -0400,
"(-0.1875, 0.1875)",b,0.0,0.0,,1,19,40,16,,,,,51.81726687499031,,,,,,,,,,,,,,,,51.81116429199756,52.67850070899294,,,,,,,,,,,,,,,,,915853,001,2024-05-12_00h27.20.449,creatingimagesNEW,2024.1.4,None,2024-05-12 00h27.26.955150 -0400,
"(0, 0.25)",r,0.0,0.0,,1,20,41,9,,,,,52.68525054199563,,,,,,,,,,,,,,,,52.678649041990866,53.74722666699381,,,,,,,,,,,,,,,,,915853,001,2024-05-12_00h27.20.449,creatingimagesNEW,2024.1.4,None,2024-05-12 00h27.26.955150 -0400,
"(0.25, 0)",r,0.0,0.0,,2,0,42,11,,,,,53.75382758399064,,,,,,,,,,,,,,,,53.747381334003876,54.51486799999839,,,,,,,,,,,,,,,,,915853,001,2024-05-12_00h27.20.449,creatingimagesNEW,2024.1.4,None,2024-05-12 00h27.26.955150 -0400,
"(-0.1875, 0.1875)",b,0.0,0.0,,2,1,43,16,,,,,54.521091125003295,,,,,,,,,,,,,,,,54.51501754199853,55.4821825419931,,,,,,,,,,,,,,,,,915853,001,2024-05-12_00h27.20.449,creatingimagesNEW,2024.1.4,None,2024-05-12 00h27.26.955150 -0400,
"(0, 0.25)",g,0.0,0.0,,2,2,44,0,,,,,55.48839266700088,,,,,,,,,,,,,,,,55.48233124999388,56.34977720899042,,,,,,,,,,,,,,,,,915853,001,2024-05-12_00h27.20.449,creatingimagesNEW,2024.1.4,None,2024-05-12 00h27.26.955150 -0400,
"(0.1875, -0.1875)",g,0.0,"(0.25, 0)",,2,3,45,12,,,,,56.35604458399757,,,,,,,,,,,,,,,,56.349929292002344,57.51778929200373,,,,,,,,,,,,,,,,,915853,001,2024-05-12_00h27.20.449,creatingimagesNEW,2024.1.4,None,2024-05-12 00h27.26.955150 -0400,
"(0.25, 0)",g,0.0,0.0,,2,4,46,2,,,,,57.52417095899,,,,,,,,,,,,,,,,57.517940416990314,58.48539724999864,,,,,,,,,,,,,,,,,915853,001,2024-05-12_00h27.20.449,creatingimagesNEW,2024.1.4,None,2024-05-12 00h27.26.955150 -0400,
"(-0.25, 0)",b,0.0,0.0,,2,5,47,17,,,,,58.491615749997436,,,,,,,,,,,,,,,,58.48554524999054,59.553503709001234,,,,,,,,,,,,,,,,,915853,001,2024-05-12_00h27.20.449,creatingimagesNEW,2024.1.4,None,2024-05-12 00h27.26.955150 -0400,
"(-0.25, 0)",r,0.0,0.0,,2,6,48,5,,,,,59.56025983399013,,,,,,,,,,,,,,,,59.55365833399992,60.522961708993535,,,,,,,,,,,,,,,,,915853,001,2024-05-12_00h27.20.449,creatingimagesNEW,2024.1.4,None,2024-05-12 00h27.26.955150 -0400,
"(0.1875, 0.1875)",r,0.0,0.0,,2,7,49,10,,,,,60.529678374994546,,,,,,,,,,,,,,,,60.52314824999485,61.491229958992335,,,,,,,,,,,,,,,,,915853,001,2024-05-12_00h27.20.449,creatingimagesNEW,2024.1.4,None,2024-05-12 00h27.26.955150 -0400,
"(0.1875, -0.1875)",r,0.0,0.0,,2,8,50,3,,,,,61.49797424999997,,,,,,,,,,,,,,,,61.49138474999927,62.45977433399821,,,,,,,,,,,,,,,,,915853,001,2024-05-12_00h27.20.449,creatingimagesNEW,2024.1.4,None,2024-05-12 00h27.26.955150 -0400,
"(-0.25, 0)",g,0.0,"(0.1875, 0.1875)",,2,9,51,14,,,,,62.46666791700409,,,,,,,,,,,,,,,,62.45993279200047,63.32780433399603,,,,,,,,,,,,,,,,,915853,001,2024-05-12_00h27.20.449,creatingimagesNEW,2024.1.4,None,2024-05-12 00h27.26.955150 -0400,
"(-0.1875, 0.1875)",g,"(-0.25, 0)",0.0,,2,10,52,7,,,,,63.33414195899968,,,,,,,,,,,,,,,,63.3279600419919,64.39561008400051,,,,,,,,,,,,,,,,,915853,001,2024-05-12_00h27.20.449,creatingimagesNEW,2024.1.4,None,2024-05-12 00h27.26.955150 -0400,
"(0.25, 0)",b,0.0,0.0,,2,11,53,15,,,,,64.40240574999189,,,,,,,,,,,,,,,,64.3957965419977,65.26371429199935,,,,,,,,,,,,,,,,,915853,001,2024-05-12_00h27.20.449,creatingimagesNEW,2024.1.4,None,2024-05-12 00h27.26.955150 -0400,
"(0, 0.25)",r,0.0,0.0,,2,12,54,9,,,,,65.26998395899136,,,,,,,,,,,,,,,,65.26389133399061,66.13186529200175,,,,,,,,,,,,,,,,,915853,001,2024-05-12_00h27.20.449,creatingimagesNEW,2024.1.4,None,2024-05-12 00h27.26.955150 -0400,
"(0.1875, 0.1875)",b,0.0,"(-0.1875, -0.1875)",,2,13,55,19,,,,,66.13846708399069,,,,,,,,,,,,,,,,66.1320252919977,67.10011870900053,,,,,,,,,,,,,,,,,915853,001,2024-05-12_00h27.20.449,creatingimagesNEW,2024.1.4,None,2024-05-12 00h27.26.955150 -0400,
"(0.25, 0)",g,"(-0.1875, -0.1875)",0.0,,2,14,56,6,,,,,67.10670454199135,,,,,,,,,,,,,,,,67.10026762499183,67.96841912499804,,,,,,,,,,,,,,,,,915853,001,2024-05-12_00h27.20.449,creatingimagesNEW,2024.1.4,None,2024-05-12 00h27.26.955150 -0400,
"(0, 0.25)",b,0.0,"(0, -0.25)",,2,15,57,18,,,,,67.97462012499454,,,,,,,,,,,,,,,,67.96856883399596,68.93609437499254,,,,,,,,,,,,,,,,,915853,001,2024-05-12_00h27.20.449,creatingimagesNEW,2024.1.4,None,2024-05-12 00h27.26.955150 -0400,
"(0.1875, 0.1875)",g,0.0,0.0,,2,16,58,1,,,,,68.94272966700373,,,,,,,,,,,,,,,,68.93625854200218,69.80360633399687,,,,,,,,,,,,,,,,,915853,001,2024-05-12_00h27.20.449,creatingimagesNEW,2024.1.4,None,2024-05-12 00h27.26.955150 -0400,
"(-0.1875, -0.1875)",g,0.0,"(-0.1875, 0.1875) ",,2,17,59,13,,,,,69.81004891700286,,,,,,,,,,,,,,,,69.8037677090033,70.57106708399078,,,,,,,,,,,,,,,,,915853,001,2024-05-12_00h27.20.449,creatingimagesNEW,2024.1.4,None,2024-05-12 00h27.26.955150 -0400,
"(-0.1875, -0.1875)",r,0.0,0.0,,2,18,60,4,,,,,70.57725716699497,,,,,,,,,,,,,,,,70.571216833996,71.53863395900407,,,,,,,,,,,,,,,,,915853,001,2024-05-12_00h27.20.449,creatingimagesNEW,2024.1.4,None,2024-05-12 00h27.26.955150 -0400,
"(-0.25, 0)",g,"(0.25, 0)",0.0,,2,19,61,8,,,,,71.54505241700099,,,,,,,,,,,,,,,,71.53878983399773,72.70653250000032,,,,,,,,,,,,,,,,,915853,001,2024-05-12_00h27.20.449,creatingimagesNEW,2024.1.4,None,2024-05-12 00h27.26.955150 -0400,
"(0.25, 0)",b,0.0,"(0.1875, -0.1875)",,2,20,62,20,,,,,72.71308354199573,,,,,,,,,,,,,,,,72.70669312500104,73.57409524999093,,,,,,,,,,,,,,,,,915853,001,2024-05-12_00h27.20.449,creatingimagesNEW,2024.1.4,None,2024-05-12 00h27.26.955150 -0400,
,,,,,,,,,,,,,,,,,,,,,,,,,,,,,,,73.57414837500255,73.58058891700057,74.5682570420031,78.08107400000154,space,3.5022098329936853,None,,,,,,,,,,915853,001,2024-05-12_00h27.20.449,creatingimagesNEW,2024.1.4,None,2024-05-12 00h27.26.955150 -0400,
"(0.25, 0)",r,,0.0,"(-0.1875, 0.1875)",,,,,0,0,0,26,78.12516945900279,,,,,,,,,,,,,,,,,,,,,,,,,78.11732566700084,79.58789149999211,,,,,,,,915853,001,2024-05-12_00h27.20.449,creatingimagesNEW,2024.1.4,None,2024-05-12 00h27.26.955150 -0400,
"(0.1875, -0.1875)",g,,"(-0.25, 0)",0.0,,,,,0,1,1,35,79.59652875000029,,,,,,,,,,,,,,,,,,,,,,,,,79.5880571250018,80.9583354589995,,,,,,,,915853,001,2024-05-12_00h27.20.449,creatingimagesNEW,2024.1.4,None,2024-05-12 00h27.26.955150 -0400,
"(0.25, 0)",g,,0.0,0.0,,,,,0,2,2,2,80.96532629200374,,,,,,,,,,,,,,,,,,,,,,,,,80.95851045899326,82.12811420900107,,,,,,,,915853,001,2024-05-12_00h27.20.449,creatingimagesNEW,2024.1.4,None,2024-05-12 00h27.26.955150 -0400,
"(-0.25, 0)",r,,0.0,"(0.1875, -0.1875)",,,,,0,3,3,30,82.1348688339931,,,,,,,,,,,,,,,,,,,,,,,,,82.12827633399866,83.29714516700187,,,,,,,,915853,001,2024-05-12_00h27.20.449,creatingimagesNEW,2024.1.4,None,2024-05-12 00h27.26.955150 -0400,
"(-0.1875, 0.1875)",r,,0.0,0.0,,,,,0,4,4,23,83.30386629200075,,,,,,,,,,,,,,,,,,,,,,,,,83.29731841699686,84.36618612500024,,,,,,,,915853,001,2024-05-12_00h27.20.449,creatingimagesNEW,2024.1.4,None,2024-05-12 00h27.26.955150 -0400,
"(0, 0.25)",b,,"(-0.1875, -0.1875)",0.0,,,,,0,5,5,48,84.37297145900084,,,,,,,,,,,,,,,,,,,,,,,,,84.3663454589987,85.33466887500254,,,,,,,,915853,001,2024-05-12_00h27.20.449,creatingimagesNEW,2024.1.4,None,2024-05-12 00h27.26.955150 -0400,
"(-0.1875, -0.1875)",r,,0.0,"(0, 0.25)",,,,,0,6,6,29,85.34124579199124,,,,,,,,,,,,,,,,,,,,,,,,,85.33482458400249,86.50352995899448,,,,,,,,915853,001,2024-05-12_00h27.20.449,creatingimagesNEW,2024.1.4,None,2024-05-12 00h27.26.955150 -0400,
"(-0.25, 0)",g,,0.0,0.0,,,,,0,7,7,6,86.51017125000362,,,,,,,,,,,,,,,,,,,,,,,,,86.5036913340009,87.67132004199084,,,,,,,,915853,001,2024-05-12_00h27.20.449,creatingimagesNEW,2024.1.4,None,2024-05-12 00h27.26.955150 -0400,
"(0.25, 0)",r,,0.0,0.0,,,,,0,8,8,18,87.67805041700194,,,,,,,,,,,,,,,,,,,,,,,,,87.67147424998984,88.73989508399973,,,,,,,,915853,001,2024-05-12_00h27.20.449,creatingimagesNEW,2024.1.4,None,2024-05-12 00h27.26.955150 -0400,
"(0.25, 0)",b,,"(-0.1875, 0.1875)",0.0,,,,,0,9,9,50,88.74637891699967,,,,,,,,,,,,,,,,,,,,,,,,,88.74005516699981,90.00970341700304,,,,,,,,915853,001,2024-05-12_00h27.20.449,creatingimagesNEW,2024.1.4,None,2024-05-12 00h27.26.955150 -0400,
"(0.1875, 0.1875)",g,,0.0,0.0,,,,,0,10,10,1,90.01653220900334,,,,,,,,,,,,,,,,,,,,,,,,,90.00986512500094,91.17816545900132,,,,,,,,915853,001,2024-05-12_00h27.20.449,creatingimagesNEW,2024.1.4,None,2024-05-12 00h27.26.955150 -0400,
"(0, -0.25)",b,,0.0,0.0,,,,,0,11,11,44,91.18501954199746,,,,,,,,,,,,,,,,,,,,,,,,,91.17832283399184,92.54757795899059,,,,,,,,915853,001,2024-05-12_00h27.20.449,creatingimagesNEW,2024.1.4,None,2024-05-12 00h27.26.955150 -0400,
"(-0.1875, -0.1875)",b,,0.0,0.0,,,,,0,12,12,45,92.55432666699926,,,,,,,,,,,,,,,,,,,,,,,,,92.54773579200264,93.81744487499236,,,,,,,,915853,001,2024-05-12_00h27.20.449,creatingimagesNEW,2024.1.4,None,2024-05-12 00h27.26.955150 -0400,
"(0.25, 0)",g,,"(-0.1875, 0.1875)",0.0,,,,,0,13,13,34,93.82454649999272,,,,,,,,,,,,,,,,,,,,,,,,,93.81764208400273,95.78769183398981,,,,,,,,915853,001,2024-05-12_00h27.20.449,creatingimagesNEW,2024.1.4,None,2024-05-12 00h27.26.955150 -0400,
"(-0.1875, -0.1875)",g,,0.0,0.0,,,,,0,14,14,5,95.79732708400115,,,,,,,,,,,,,,,,,,,,,,,,,95.78785583400168,97.15920087500126,,,,,,,,915853,001,2024-05-12_00h27.20.449,creatingimagesNEW,2024.1.4,None,2024-05-12 00h27.26.955150 -0400,
"(0.1875, 0.1875)",r,,0.0,"(0, -0.25)",,,,,0,15,15,25,97.16604091699992,,,,,,,,,,,,,,,,,,,,,,,,,97.15936395899917,98.42848562500149,,,,,,,,915853,001,2024-05-12_00h27.20.449,creatingimagesNEW,2024.1.4,None,2024-05-12 00h27.26.955150 -0400,
"(0.1875, 0.1875)",g,,0.0,"(0, -0.25)",,,,,0,16,16,9,98.43550645899086,,,,,,,,,,,,,,,,,,,,,,,,,98.42866750000394,100.49917154200375,,,,,,,,915853,001,2024-05-12_00h27.20.449,creatingimagesNEW,2024.1.4,None,2024-05-12 00h27.26.955150 -0400,
"(-0.1875, 0.1875)",g,,0.0,"(0.25, 0)",,,,,0,17,17,15,100.50795970899344,,,,,,,,,,,,,,,,,,,,,,,,,100.4993259999901,102.57136545899266,,,,,,,,915853,001,2024-05-12_00h27.20.449,creatingimagesNEW,2024.1.4,None,2024-05-12 00h27.26.955150 -0400,
"(-0.1875, -0.1875)",g,,0.0,"(0, 0.25)",,,,,0,18,18,13,102.58126999999513,,,,,,,,,,,,,,,,,,,,,,,,,102.5715277089912,104.34330325000337,,,,,,,,915853,001,2024-05-12_00h27.20.449,creatingimagesNEW,2024.1.4,None,2024-05-12 00h27.26.955150 -0400,
"(0.1875, 0.1875)",b,,"(0, -0.25)",0.0,,,,,0,19,19,49,104.35303808399476,,,,,,,,,,,,,,,,,,,,,,,,,104.34346791700227,106.3156128339906,,,,,,,,915853,001,2024-05-12_00h27.20.449,creatingimagesNEW,2024.1.4,None,2024-05-12 00h27.26.955150 -0400,
"(0, 0.25)",g,,0.0,0.0,,,,,0,20,20,0,106.32455437499448,,,,,,,,,,,,,,,,,,,,,,,,,106.31577329199354,107.78817887499463,,,,,,,,915853,001,2024-05-12_00h27.20.449,creatingimagesNEW,2024.1.4,None,2024-05-12 00h27.26.955150 -0400,
"(-0.1875, -0.1875)",g,,"(0, 0.25)",0.0,,,,,0,21,21,37,107.7951843339979,,,,,,,,,,,,,,,,,,,,,,,,,107.7883437499986,108.95784212498984,,,,,,,,915853,001,2024-05-12_00h27.20.449,creatingimagesNEW,2024.1.4,None,2024-05-12 00h27.26.955150 -0400,
"(-0.25, 0)",b,,"(0.1875, -0.1875)",0.0,,,,,0,22,22,54,108.96460504199786,,,,,,,,,,,,,,,,,,,,,,,,,108.95800524999504,110.42646033399797,,,,,,,,915853,001,2024-05-12_00h27.20.449,creatingimagesNEW,2024.1.4,None,2024-05-12 00h27.26.955150 -0400,
"(0, 0.25)",g,,"(-0.1875, -0.1875)",0.0,,,,,0,23,23,32,110.43526570899121,,,,,,,,,,,,,,,,,,,,,,,,,110.42662633399596,111.998297291997,,,,,,,,915853,001,2024-05-12_00h27.20.449,creatingimagesNEW,2024.1.4,None,2024-05-12 00h27.26.955150 -0400,
"(-0.1875, 0.1875)",g,,"(0.25, 0)",0.0,,,,,0,24,24,39,112.0073457499966,,,,,,,,,,,,,,,,,,,,,,,,,111.99847583399969,113.56895375000022,,,,,,,,915853,001,2024-05-12_00h27.20.449,creatingimagesNEW,2024.1.4,None,2024-05-12 00h27.26.955150 -0400,
"(0, -0.25)",r,,0.0,0.0,,,,,0,25,25,20,113.57760945899645,,,,,,,,,,,,,,,,,,,,,,,,,113.56910620898998,114.7387779589917,,,,,,,,915853,001,2024-05-12_00h27.20.449,creatingimagesNEW,2024.1.4,None,2024-05-12 00h27.26.955150 -0400,
"(-0.1875, -0.1875)",r,,0.0,0.0,,,,,0,26,26,21,114.74543320899829,,,,,,,,,,,,,,,,,,,,,,,,,114.73892879199411,115.90690341699519,,,,,,,,915853,001,2024-05-12_00h27.20.449,creatingimagesNEW,2024.1.4,None,2024-05-12 00h27.26.955150 -0400,
"(0.1875, -0.1875)",b,,0.0,0.0,,,,,0,27,27,43,115.91360516699206,,,,,,,,,,,,,,,,,,,,,,,,,115.9070592920034,117.27630316700379,,,,,,,,915853,001,2024-05-12_00h27.20.449,creatingimagesNEW,2024.1.4,None,2024-05-12 00h27.26.955150 -0400,
"(0, -0.25)",g,,"(0.1875, 0.1875)",0.0,,,,,0,28,28,36,117.28313641699788,,,,,,,,,,,,,,,,,,,,,,,,,117.27646049999748,119.04652883399103,,,,,,,,915853,001,2024-05-12_00h27.20.449,creatingimagesNEW,2024.1.4,None,2024-05-12 00h27.26.955150 -0400,
"(0, 0.25)",b,,0.0,0.0,,,,,0,29,29,40,119.05537520899088,,,,,,,,,,,,,,,,,,,,,,,,,119.04668945899175,120.21687133399246,,,,,,,,915853,001,2024-05-12_00h27.20.449,creatingimagesNEW,2024.1.4,None,2024-05-12 00h27.26.955150 -0400,
"(0.1875, -0.1875)",b,,"(-0.25, 0)",0.0,,,,,0,30,30,51,120.22363883399521,,,,,,,,,,,,,,,,,,,,,,,,,120.21702825000102,121.68511745899741,,,,,,,,915853,001,2024-05-12_00h27.20.449,creatingimagesNEW,2024.1.4,None,2024-05-12 00h27.26.955150 -0400,
"(-0.1875, 0.1875)",r,,0.0,"(0.25, 0)",,,,,0,31,31,31,121.69392774999142,,,,,,,,,,,,,,,,,,,,,,,,,121.68527937500039,122.85564287500165,,,,,,,,915853,001,2024-05-12_00h27.20.449,creatingimagesNEW,2024.1.4,None,2024-05-12 00h27.26.955150 -0400,
"(0.1875, -0.1875)",r,,0.0,0.0,,,,,0,32,32,19,122.86225041699072,,,,,,,,,,,,,,,,,,,,,,,,,122.85580150000169,124.02420779199747,,,,,,,,915853,001,2024-05-12_00h27.20.449,creatingimagesNEW,2024.1.4,None,2024-05-12 00h27.26.955150 -0400,
"(0.25, 0)",g,,0.0,"(-0.1875, 0.1875)",,,,,0,33,33,10,124.03071916699992,,,,,,,,,,,,,,,,,,,,,,,,,124.02436504200159,125.39315216700197,,,,,,,,915853,001,2024-05-12_00h27.20.449,creatingimagesNEW,2024.1.4,None,2024-05-12 00h27.26.955150 -0400,
"(-0.25, 0)",b,,0.0,0.0,,,,,0,34,34,46,125.40169079200132,,,,,,,,,,,,,,,,,,,,,,,,,125.39331758399203,126.7112211670028,,,,,,,,915853,001,2024-05-12_00h27.20.449,creatingimagesNEW,2024.1.4,None,2024-05-12 00h27.26.955150 -0400,
"(0, 0.25)",r,,0.0,0.0,,,,,0,35,35,16,126.71805108399712,,,,,,,,,,,,,,,,,,,,,,,,,126.71138295899436,127.9797140419978,,,,,,,,915853,001,2024-05-12_00h27.20.449,creatingimagesNEW,2024.1.4,None,2024-05-12 00h27.26.955150 -0400,
"(-0.25, 0)",g,,0.0,"(0.1875, -0.1875)",,,,,0,36,36,14,127.98647095900378,,,,,,,,,,,,,,,,,,,,,,,,,127.97987499998999,129.5482637919922,,,,,,,,915853,001,2024-05-12_00h27.20.449,creatingimagesNEW,2024.1.4,None,2024-05-12 00h27.26.955150 -0400,
"(-0.1875, 0.1875)",g,,0.0,0.0,,,,,0,37,37,7,129.55715733399848,,,,,,,,,,,,,,,,,,,,,,,,,129.54842795900186,131.0200272499933,,,,,,,,915853,001,2024-05-12_00h27.20.449,creatingimagesNEW,2024.1.4,None,2024-05-12 00h27.26.955150 -0400,
"(0.1875, -0.1875)",g,,0.0,"(-0.25, 0)",,,,,0,38,38,11,131.02958333399147,,,,,,,,,,,,,,,,,,,,,,,,,131.02018966700416,133.09297741699265,,,,,,,,915853,001,2024-05-12_00h27.20.449,creatingimagesNEW,2024.1.4,None,2024-05-12 00h27.26.955150 -0400,
"(-0.1875, 0.1875)",b,,0.0,0.0,,,,,0,39,39,47,133.10188337499858,,,,,,,,,,,,,,,,,,,,,,,,,133.0931380839902,134.3644187500031,,,,,,,,915853,001,2024-05-12_00h27.20.449,creatingimagesNEW,2024.1.4,None,2024-05-12 00h27.26.955150 -0400,
"(0.1875, 0.1875)",r,,0.0,0.0,,,,,0,40,40,17,134.3710900839942,,,,,,,,,,,,,,,,,,,,,,,,,134.36459104200185,135.63389041699702,,,,,,,,915853,001,2024-05-12_00h27.20.449,creatingimagesNEW,2024.1.4,None,2024-05-12 00h27.26.955150 -0400,
"(-0.1875, 0.1875)",b,,"(0.25, 0)",0.0,,,,,0,41,41,55,135.6405628749926,,,,,,,,,,,,,,,,,,,,,,,,,135.6340497499914,137.50354750000406,,,,,,,,915853,001,2024-05-12_00h27.20.449,creatingimagesNEW,2024.1.4,None,2024-05-12 00h27.26.955150 -0400,
"(0, -0.25)",r,,0.0,"(0.1875, 0.1875)",,,,,0,42,42,28,137.51321274999646,,,,,,,,,,,,,,,,,,,,,,,,,137.50370762500097,138.87642458399932,,,,,,,,915853,001,2024-05-12_00h27.20.449,creatingimagesNEW,2024.1.4,None,2024-05-12 00h27.26.955150 -0400,
"(-0.1875, -0.1875)",b,,"(0, 0.25)",0.0,,,,,0,43,43,53,138.884300042002,,,,,,,,,,,,,,,,,,,,,,,,,138.87658658399596,140.44663258400396,,,,,,,,915853,001,2024-05-12_00h27.20.449,creatingimagesNEW,2024.1.4,None,2024-05-12 00h27.26.955150 -0400,
"(0.1875, -0.1875)",r,,0.0,"(-0.25, 0)",,,,,0,44,44,27,140.4563247920014,,,,,,,,,,,,,,,,,,,,,,,,,140.44681108399527,142.11978616699344,,,,,,,,915853,001,2024-05-12_00h27.20.449,creatingimagesNEW,2024.1.4,None,2024-05-12 00h27.26.955150 -0400,
"(0.25, 0)",b,,0.0,0.0,,,,,0,45,45,42,142.12973437499022,,,,,,,,,,,,,,,,,,,,,,,,,142.11994979200244,143.79164658399532,,,,,,,,915853,001,2024-05-12_00h27.20.449,creatingimagesNEW,2024.1.4,None,2024-05-12 00h27.26.955150 -0400,
"(0, 0.25)",r,,0.0,"(-0.1875, -0.1875)",,,,,0,46,46,24,143.80085954199603,,,,,,,,,,,,,,,,,,,,,,,,,143.7918045839906,145.26261683399207,,,,,,,,915853,001,2024-05-12_00h27.20.449,creatingimagesNEW,2024.1.4,None,2024-05-12 00h27.26.955150 -0400,
"(0, -0.25)",g,,0.0,0.0,,,,,0,47,47,4,145.2695776670007,,,,,,,,,,,,,,,,,,,,,,,,,145.2627736669965,146.73239304199524,,,,,,,,915853,001,2024-05-12_00h27.20.449,creatingimagesNEW,2024.1.4,None,2024-05-12 00h27.26.955150 -0400,
"(-0.25, 0)",r,,0.0,0.0,,,,,0,48,48,22,146.74160054199456,,,,,,,,,,,,,,,,,,,,,,,,,146.73255154199433,147.90329387500242,,,,,,,,915853,001,2024-05-12_00h27.20.449,creatingimagesNEW,2024.1.4,None,2024-05-12 00h27.26.955150 -0400,
"(-0.25, 0)",g,,"(0.1875, -0.1875)",0.0,,,,,0,49,49,38,147.91020645899698,,,,,,,,,,,,,,,,,,,,,,,,,147.90345933400386,149.67267183399235,,,,,,,,915853,001,2024-05-12_00h27.20.449,creatingimagesNEW,2024.1.4,None,2024-05-12 00h27.26.955150 -0400,
"(0, -0.25)",g,,0.0,"(0.1875, 0.1875)",,,,,0,50,50,12,149.68157200000132,,,,,,,,,,,,,,,,,,,,,,,,,149.67283333399973,151.7452769169904,,,,,,,,915853,001,2024-05-12_00h27.20.449,creatingimagesNEW,2024.1.4,None,2024-05-12 00h27.26.955150 -0400,
"(0.1875, 0.1875)",b,,0.0,0.0,,,,,0,51,51,41,151.75432866699703,,,,,,,,,,,,,,,,,,,,,,,,,151.7454402089934,153.01591950000147,,,,,,,,915853,001,2024-05-12_00h27.20.449,creatingimagesNEW,2024.1.4,None,2024-05-12 00h27.26.955150 -0400,
"(0, -0.25)",b,,"(0.1875, 0.1875)",0.0,,,,,0,52,52,52,153.02260383400426,,,,,,,,,,,,,,,,,,,,,,,,,153.01608204199874,154.8849851249979,,,,,,,,915853,001,2024-05-12_00h27.20.449,creatingimagesNEW,2024.1.4,None,2024-05-12 00h27.26.955150 -0400,
"(0.1875, -0.1875)",g,,0.0,0.0,,,,,0,53,53,3,154.8942787089909,,,,,,,,,,,,,,,,,,,,,,,,,154.88515766699857,156.4574353749922,,,,,,,,915853,001,2024-05-12_00h27.20.449,creatingimagesNEW,2024.1.4,None,2024-05-12 00h27.26.955150 -0400,
"(0.1875, 0.1875)",g,,"(0, -0.25)",0.0,,,,,0,54,54,33,156.46689799999876,,,,,,,,,,,,,,,,,,,,,,,,,156.45759504199668,157.92869312499533,,,,,,,,915853,001,2024-05-12_00h27.20.449,creatingimagesNEW,2024.1.4,None,2024-05-12 00h27.26.955150 -0400,
"(0, 0.25)",g,,0.0,"(-0.1875, -0.1875)",,,,,0,55,55,8,157.9384575419972,,,,,,,,,,,,,,,,,,,,,,,,,157.92885008399026,159.400923084002,,,,,,,,915853,001,2024-05-12_00h27.20.449,creatingimagesNEW,2024.1.4,None,2024-05-12 00h27.26.955150 -0400,
"(0.1875, -0.1875)",b,,0.0,0.0,,,,,1,0,56,43,159.41009124999982,,,,,,,,,,,,,,,,,,,,,,,,,159.40107895899564,160.6720018749911,,,,,,,,915853,001,2024-05-12_00h27.20.449,creatingimagesNEW,2024.1.4,None,2024-05-12 00h27.26.955150 -0400,
"(0.1875, 0.1875)",b,,0.0,0.0,,,,,1,1,57,41,160.67877658399811,,,,,,,,,,,,,,,,,,,,,,,,,160.6721620419994,161.9419402499916,,,,,,,,915853,001,2024-05-12_00h27.20.449,creatingimagesNEW,2024.1.4,None,2024-05-12 00h27.26.955150 -0400,
"(-0.1875, 0.1875)",g,,0.0,0.0,,,,,1,2,58,7,161.9488637089962,,,,,,,,,,,,,,,,,,,,,,,,,161.942113875004,163.31207945899223,,,,,,,,915853,001,2024-05-12_00h27.20.449,creatingimagesNEW,2024.1.4,None,2024-05-12 00h27.26.955150 -0400,
"(-0.25, 0)",g,,0.0,0.0,,,,,1,3,59,6,163.31950779199542,,,,,,,,,,,,,,,,,,,,,,,,,163.3122960000037,164.58175133400073,,,,,,,,915853,001,2024-05-12_00h27.20.449,creatingimagesNEW,2024.1.4,None,2024-05-12 00h27.26.955150 -0400,
"(-0.1875, -0.1875)",b,,"(0, 0.25)",0.0,,,,,1,4,60,53,164.58911662499304,,,,,,,,,,,,,,,,,,,,,,,,,164.5820098749973,165.95061554199492,,,,,,,,915853,001,2024-05-12_00h27.20.449,creatingimagesNEW,2024.1.4,None,2024-05-12 00h27.26.955150 -0400,
"(0, -0.25)",g,,"(0.1875, 0.1875)",0.0,,,,,1,5,61,36,165.95738637499744,,,,,,,,,,,,,,,,,,,,,,,,,165.95078258399735,167.52107099999557,,,,,,,,915853,001,2024-05-12_00h27.20.449,creatingimagesNEW,2024.1.4,None,2024-05-12 00h27.26.955150 -0400,
"(-0.25, 0)",g,,0.0,"(0.1875, -0.1875)",,,,,1,6,62,14,167.5306224590022,,,,,,,,,,,,,,,,,,,,,,,,,167.52125212499232,169.4945572919969,,,,,,,,915853,001,2024-05-12_00h27.20.449,creatingimagesNEW,2024.1.4,None,2024-05-12 00h27.26.955150 -0400,
"(0.1875, 0.1875)",g,,0.0,0.0,,,,,1,7,63,1,169.50411224999698,,,,,,,,,,,,,,,,,,,,,,,,,169.49471770899254,171.06643204200373,,,,,,,,915853,001,2024-05-12_00h27.20.449,creatingimagesNEW,2024.1.4,None,2024-05-12 00h27.26.955150 -0400,
"(-0.1875, -0.1875)",g,,0.0,"(0, 0.25)",,,,,1,8,64,13,171.07573908400082,,,,,,,,,,,,,,,,,,,,,,,,,171.0666116670036,172.73780479199195,,,,,,,,915853,001,2024-05-12_00h27.20.449,creatingimagesNEW,2024.1.4,None,2024-05-12 00h27.26.955150 -0400,
"(0, -0.25)",g,,0.0,0.0,,,,,1,9,65,4,172.74661108400323,,,,,,,,,,,,,,,,,,,,,,,,,172.73796537499584,174.0098092499975,,,,,,,,915853,001,2024-05-12_00h27.20.449,creatingimagesNEW,2024.1.4,None,2024-05-12 00h27.26.955150 -0400,
"(0, 0.25)",g,,"(-0.1875, -0.1875)",0.0,,,,,1,10,66,32,174.01676008399227,,,,,,,,,,,,,,,,,,,,,,,,,174.00997250000364,175.8793830420036,,,,,,,,915853,001,2024-05-12_00h27.20.449,creatingimagesNEW,2024.1.4,None,2024-05-12 00h27.26.955150 -0400,
"(-0.25, 0)",b,,"(0.1875, -0.1875)",0.0,,,,,1,11,67,54,175.88904566699057,,,,,,,,,,,,,,,,,,,,,,,,,175.8795449169993,177.35206941700017,,,,,,,,915853,001,2024-05-12_00h27.20.449,creatingimagesNEW,2024.1.4,None,2024-05-12 00h27.26.955150 -0400,
"(0.1875, -0.1875)",r,,0.0,0.0,,,,,1,12,68,19,177.35873454199464,,,,,,,,,,,,,,,,,,,,,,,,,177.35222512499604,178.82256216699898,,,,,,,,915853,001,2024-05-12_00h27.20.449,creatingimagesNEW,2024.1.4,None,2024-05-12 00h27.26.955150 -0400,
"(0.25, 0)",g,,"(-0.1875, 0.1875)",0.0,,,,,1,13,69,34,178.8319578340015,,,,,,,,,,,,,,,,,,,,,,,,,178.8227216249943,180.99555924999004,,,,,,,,915853,001,2024-05-12_00h27.20.449,creatingimagesNEW,2024.1.4,None,2024-05-12 00h27.26.955150 -0400,
"(-0.1875, 0.1875)",r,,0.0,"(0.25, 0)",,,,,1,14,70,31,181.005251124996,,,,,,,,,,,,,,,,,,,,,,,,,180.99572574999183,182.46835958400334,,,,,,,,915853,001,2024-05-12_00h27.20.449,creatingimagesNEW,2024.1.4,None,2024-05-12 00h27.26.955150 -0400,
"(0, -0.25)",b,,0.0,0.0,,,,,1,15,71,44,182.47512858400296,,,,,,,,,,,,,,,,,,,,,,,,,182.46852379199117,183.93743083399022,,,,,,,,915853,001,2024-05-12_00h27.20.449,creatingimagesNEW,2024.1.4,None,2024-05-12 00h27.26.955150 -0400,
"(-0.25, 0)",b,,0.0,0.0,,,,,1,16,72,46,183.9472505839949,,,,,,,,,,,,,,,,,,,,,,,,,183.9375886249909,185.31061770899396,,,,,,,,915853,001,2024-05-12_00h27.20.449,creatingimagesNEW,2024.1.4,None,2024-05-12 00h27.26.955150 -0400,
"(0.25, 0)",r,,0.0,"(-0.1875, 0.1875)",,,,,1,17,73,26,185.321283458994,,,,,,,,,,,,,,,,,,,,,,,,,185.31077899999218,187.08407429199724,,,,,,,,915853,001,2024-05-12_00h27.20.449,creatingimagesNEW,2024.1.4,None,2024-05-12 00h27.26.955150 -0400,
"(0, 0.25)",r,,0.0,0.0,,,,,1,18,74,16,187.0944297919923,,,,,,,,,,,,,,,,,,,,,,,,,187.08424341698992,188.55787666699325,,,,,,,,915853,001,2024-05-12_00h27.20.449,creatingimagesNEW,2024.1.4,None,2024-05-12 00h27.26.955150 -0400,
"(0.1875, -0.1875)",r,,0.0,"(-0.25, 0)",,,,,1,19,75,27,188.56462229200406,,,,,,,,,,,,,,,,,,,,,,,,,188.55804283400357,190.32751824999286,,,,,,,,915853,001,2024-05-12_00h27.20.449,creatingimagesNEW,2024.1.4,None,2024-05-12 00h27.26.955150 -0400,
"(0.1875, -0.1875)",b,,"(-0.25, 0)",0.0,,,,,1,20,76,51,190.33678166699247,,,,,,,,,,,,,,,,,,,,,,,,,190.32768170899362,191.8002681670041,,,,,,,,915853,001,2024-05-12_00h27.20.449,creatingimagesNEW,2024.1.4,None,2024-05-12 00h27.26.955150 -0400,
"(0, 0.25)",r,,0.0,"(-0.1875, -0.1875)",,,,,1,21,77,24,191.80694045899145,,,,,,,,,,,,,,,,,,,,,,,,,191.8004286249925,193.069477750003,,,,,,,,915853,001,2024-05-12_00h27.20.449,creatingimagesNEW,2024.1.4,None,2024-05-12 00h27.26.955150 -0400,
"(0.1875, 0.1875)",b,,"(0, -0.25)",0.0,,,,,1,22,78,49,193.07625570899108,,,,,,,,,,,,,,,,,,,,,,,,,193.0696329170023,194.33907004199864,,,,,,,,915853,001,2024-05-12_00h27.20.449,creatingimagesNEW,2024.1.4,None,2024-05-12 00h27.26.955150 -0400,
"(0, 0.25)",g,,0.0,0.0,,,,,1,23,79,0,194.34594316699076,,,,,,,,,,,,,,,,,,,,,,,,,194.33922883399646,195.50818204200186,,,,,,,,915853,001,2024-05-12_00h27.20.449,creatingimagesNEW,2024.1.4,None,2024-05-12 00h27.26.955150 -0400,
"(-0.1875, 0.1875)",b,,0.0,0.0,,,,,1,24,80,47,195.51488104199234,,,,,,,,,,,,,,,,,,,,,,,,,195.50833674999012,196.6771045839996,,,,,,,,915853,001,2024-05-12_00h27.20.449,creatingimagesNEW,2024.1.4,None,2024-05-12 00h27.26.955150 -0400,
"(-0.25, 0)",g,,"(0.1875, -0.1875)",0.0,,,,,1,25,81,38,196.68391295899346,,,,,,,,,,,,,,,,,,,,,,,,,196.67727166699478,198.24671449999732,,,,,,,,915853,001,2024-05-12_00h27.20.449,creatingimagesNEW,2024.1.4,None,2024-05-12 00h27.26.955150 -0400,
"(-0.1875, 0.1875)",g,,"(0.25, 0)",0.0,,,,,1,26,82,39,198.2555934169941,,,,,,,,,,,,,,,,,,,,,,,,,198.2468729169923,199.81926933399518,,,,,,,,915853,001,2024-05-12_00h27.20.449,creatingimagesNEW,2024.1.4,None,2024-05-12 00h27.26.955150 -0400,
"(0.1875, -0.1875)",g,,"(-0.25, 0)",0.0,,,,,1,27,83,35,199.82824741699733,,,,,,,,,,,,,,,,,,,,,,,,,199.81943279199186,201.3921389169991,,,,,,,,915853,001,2024-05-12_00h27.20.449,creatingimagesNEW,2024.1.4,None,2024-05-12 00h27.26.955150 -0400,
"(-0.1875, 0.1875)",g,,0.0,"(0.25, 0)",,,,,1,28,84,15,201.40173516698997,,,,,,,,,,,,,,,,,,,,,,,,,201.3923186250031,203.0653212920006,,,,,,,,915853,001,2024-05-12_00h27.20.449,creatingimagesNEW,2024.1.4,None,2024-05-12 00h27.26.955150 -0400,
"(0.25, 0)",r,,0.0,0.0,,,,,1,29,85,18,203.07436558399058,,,,,,,,,,,,,,,,,,,,,,,,,203.06548883399228,204.23678137500247,,,,,,,,915853,001,2024-05-12_00h27.20.449,creatingimagesNEW,2024.1.4,None,2024-05-12 00h27.26.955150 -0400,
"(-0.1875, 0.1875)",b,,"(0.25, 0)",0.0,,,,,1,30,86,55,204.24367062500096,,,,,,,,,,,,,,,,,,,,,,,,,204.2369533339952,206.00658020899573,,,,,,,,915853,001,2024-05-12_00h27.20.449,creatingimagesNEW,2024.1.4,None,2024-05-12 00h27.26.955150 -0400,
"(-0.1875, -0.1875)",r,,0.0,"(0, 0.25)",,,,,1,31,87,29,206.01451399999496,,,,,,,,,,,,,,,,,,,,,,,,,206.0067489590001,207.27652866700373,,,,,,,,915853,001,2024-05-12_00h27.20.449,creatingimagesNEW,2024.1.4,None,2024-05-12 00h27.26.955150 -0400,
"(0.1875, 0.1875)",g,,0.0,"(0, -0.25)",,,,,1,32,88,9,207.2832979169907,,,,,,,,,,,,,,,,,,,,,,,,,207.27668445899326,209.14631533400097,,,,,,,,915853,001,2024-05-12_00h27.20.449,creatingimagesNEW,2024.1.4,None,2024-05-12 00h27.26.955150 -0400,
"(-0.1875, -0.1875)",g,,0.0,0.0,,,,,1,33,89,5,209.1544013340026,,,,,,,,,,,,,,,,,,,,,,,,,209.1464784169948,210.5174073340022,,,,,,,,915853,001,2024-05-12_00h27.20.449,creatingimagesNEW,2024.1.4,None,2024-05-12 00h27.26.955150 -0400,
"(0.25, 0)",g,,0.0,"(-0.1875, 0.1875)",,,,,1,34,90,10,210.5241296250024,,,,,,,,,,,,,,,,,,,,,,,,,210.51757983399148,212.28702262499428,,,,,,,,915853,001,2024-05-12_00h27.20.449,creatingimagesNEW,2024.1.4,None,2024-05-12 00h27.26.955150 -0400,
"(-0.1875, -0.1875)",g,,"(0, 0.25)",0.0,,,,,1,35,91,37,212.29486333399836,,,,,,,,,,,,,,,,,,,,,,,,,212.2871973750007,213.75754037499428,,,,,,,,915853,001,2024-05-12_00h27.20.449,creatingimagesNEW,2024.1.4,None,2024-05-12 00h27.26.955150 -0400,
"(-0.25, 0)",r,,0.0,0.0,,,,,1,36,92,22,213.76434604199312,,,,,,,,,,,,,,,,,,,,,,,,,213.75770454200392,214.92741783399833,,,,,,,,915853,001,2024-05-12_00h27.20.449,creatingimagesNEW,2024.1.4,None,2024-05-12 00h27.26.955150 -0400,
"(0, 0.25)",g,,0.0,"(-0.1875, -0.1875)",,,,,1,37,93,8,214.93413520899776,,,,,,,,,,,,,,,,,,,,,,,,,214.92757608399552,216.89789100000053,,,,,,,,915853,001,2024-05-12_00h27.20.449,creatingimagesNEW,2024.1.4,None,2024-05-12 00h27.26.955150 -0400,
"(0, 0.25)",b,,0.0,0.0,,,,,1,38,94,40,216.90710820899403,,,,,,,,,,,,,,,,,,,,,,,,,216.8980527919921,218.26973529199313,,,,,,,,915853,001,2024-05-12_00h27.20.449,creatingimagesNEW,2024.1.4,None,2024-05-12 00h27.26.955150 -0400,
"(0.1875, -0.1875)",g,,0.0,"(-0.25, 0)",,,,,1,39,95,11,218.2766941669979,,,,,,,,,,,,,,,,,,,,,,,,,218.26990362499782,220.33976074999373,,,,,,,,915853,001,2024-05-12_00h27.20.449,creatingimagesNEW,2024.1.4,None,2024-05-12 00h27.26.955150 -0400,
"(0.25, 0)",g,,0.0,0.0,,,,,1,40,96,2,220.34902704200067,,,,,,,,,,,,,,,,,,,,,,,,,220.33992254199984,221.77536837499065,,,,,,,,915853,001,2024-05-12_00h27.20.449,creatingimagesNEW,2024.1.4,None,2024-05-12 00h27.26.955150 -0400,
"(-0.1875, 0.1875)",r,,0.0,0.0,,,,,1,41,97,23,221.7824757089984,,,,,,,,,,,,,,,,,,,,,,,,,221.77555224999378,223.0445663339924,,,,,,,,915853,001,2024-05-12_00h27.20.449,creatingimagesNEW,2024.1.4,None,2024-05-12 00h27.26.955150 -0400,
"(0.1875, -0.1875)",g,,0.0,0.0,,,,,1,42,98,3,223.051335791999,,,,,,,,,,,,,,,,,,,,,,,,,223.04471887499676,224.41415495899855,,,,,,,,915853,001,2024-05-12_00h27.20.449,creatingimagesNEW,2024.1.4,None,2024-05-12 00h27.26.955150 -0400,
"(-0.25, 0)",r,,0.0,"(0.1875, -0.1875)",,,,,1,43,99,30,224.42275499999232,,,,,,,,,,,,,,,,,,,,,,,,,224.41431404199102,225.88594912500412,,,,,,,,915853,001,2024-05-12_00h27.20.449,creatingimagesNEW,2024.1.4,None,2024-05-12 00h27.26.955150 -0400,
"(0, -0.25)",r,,0.0,"(0.1875, 0.1875)",,,,,1,44,100,28,225.89455799999996,,,,,,,,,,,,,,,,,,,,,,,,,225.88611179200234,227.35774766700342,,,,,,,,915853,001,2024-05-12_00h27.20.449,creatingimagesNEW,2024.1.4,None,2024-05-12 00h27.26.955150 -0400,
"(0, -0.25)",b,,"(0.1875, 0.1875)",0.0,,,,,1,45,101,52,227.36435020899808,,,,,,,,,,,,,,,,,,,,,,,,,227.35790520899172,229.02776712499326,,,,,,,,915853,001,2024-05-12_00h27.20.449,creatingimagesNEW,2024.1.4,None,2024-05-12 00h27.26.955150 -0400,
"(-0.1875, -0.1875)",r,,0.0,0.0,,,,,1,46,102,21,229.0375977090007,,,,,,,,,,,,,,,,,,,,,,,,,229.027929459,230.50052795899683,,,,,,,,915853,001,2024-05-12_00h27.20.449,creatingimagesNEW,2024.1.4,None,2024-05-12 00h27.26.955150 -0400,
"(0.1875, 0.1875)",r,,0.0,"(0, -0.25)",,,,,1,47,103,25,230.50734020899108,,,,,,,,,,,,,,,,,,,,,,,,,230.50069145899033,231.87016391700308,,,,,,,,915853,001,2024-05-12_00h27.20.449,creatingimagesNEW,2024.1.4,None,2024-05-12 00h27.26.955150 -0400,
"(0.1875, 0.1875)",r,,0.0,0.0,,,,,1,48,104,17,231.8796854169923,,,,,,,,,,,,,,,,,,,,,,,,,231.87033708399395,233.24256229199818,,,,,,,,915853,001,2024-05-12_00h27.20.449,creatingimagesNEW,2024.1.4,None,2024-05-12 00h27.26.955150 -0400,
"(0.25, 0)",b,,"(-0.1875, 0.1875)",0.0,,,,,1,49,105,50,233.2493689999974,,,,,,,,,,,,,,,,,,,,,,,,,233.24272920899966,234.6121449170023,,,,,,,,915853,001,2024-05-12_00h27.20.449,creatingimagesNEW,2024.1.4,None,2024-05-12 00h27.26.955150 -0400,
"(0, -0.25)",r,,0.0,0.0,,,,,1,50,106,20,234.62155299998994,,,,,,,,,,,,,,,,,,,,,,,,,234.61230487500143,235.6834481669939,,,,,,,,915853,001,2024-05-12_00h27.20.449,creatingimagesNEW,2024.1.4,None,2024-05-12 00h27.26.955150 -0400,
"(-0.1875, -0.1875)",b,,0.0,0.0,,,,,1,51,107,45,235.69013541699678,,,,,,,,,,,,,,,,,,,,,,,,,235.68360358399514,236.85251216699544,,,,,,,,915853,001,2024-05-12_00h27.20.449,creatingimagesNEW,2024.1.4,None,2024-05-12 00h27.26.955150 -0400,
"(0, -0.25)",g,,0.0,"(0.1875, 0.1875)",,,,,1,52,108,12,236.85923724999884,,,,,,,,,,,,,,,,,,,,,,,,,236.85267162499076,238.92236558400327,,,,,,,,915853,001,2024-05-12_00h27.20.449,creatingimagesNEW,2024.1.4,None,2024-05-12 00h27.26.955150 -0400,
"(0.25, 0)",b,,0.0,0.0,,,,,1,53,109,42,238.93190295899694,,,,,,,,,,,,,,,,,,,,,,,,,238.9225263339904,240.1943360419973,,,,,,,,915853,001,2024-05-12_00h27.20.449,creatingimagesNEW,2024.1.4,None,2024-05-12 00h27.26.955150 -0400,
"(0, 0.25)",b,,"(-0.1875, -0.1875)",0.0,,,,,1,54,110,48,240.20101912500104,,,,,,,,,,,,,,,,,,,,,,,,,240.19450858399796,241.4637248749932,,,,,,,,915853,001,2024-05-12_00h27.20.449,creatingimagesNEW,2024.1.4,None,2024-05-12 00h27.26.955150 -0400,
"(0.1875, 0.1875)",g,,"(0, -0.25)",0.0,,,,,1,55,111,33,241.47030720899056,,,,,,,,,,,,,,,,,,,,,,,,,241.46388183400268,242.83322079200298,,,,,,,,915853,001,2024-05-12_00h27.20.449,creatingimagesNEW,2024.1.4,None,2024-05-12 00h27.26.955150 -0400,
"(-0.1875, 0.1875)",r,,0.0,"(0.25, 0)",,,,,2,0,112,31,242.84005141699163,,,,,,,,,,,,,,,,,,,,,,,,,242.83338258399453,244.4031739589991,,,,,,,,915853,001,2024-05-12_00h27.20.449,creatingimagesNEW,2024.1.4,None,2024-05-12 00h27.26.955150 -0400,
"(0.25, 0)",g,,"(-0.1875, 0.1875)",0.0,,,,,2,1,113,34,244.41249962500297,,,,,,,,,,,,,,,,,,,,,,,,,244.40333737499896,246.07562599999073,,,,,,,,915853,001,2024-05-12_00h27.20.449,creatingimagesNEW,2024.1.4,None,2024-05-12 00h27.26.955150 -0400,
"(0, 0.25)",b,,0.0,0.0,,,,,2,2,114,40,246.08546879199275,,,,,,,,,,,,,,,,,,,,,,,,,246.07578333400306,247.34819887499907,,,,,,,,915853,001,2024-05-12_00h27.20.449,creatingimagesNEW,2024.1.4,None,2024-05-12 00h27.26.955150 -0400,
"(0, 0.25)",g,,0.0,"(-0.1875, -0.1875)",,,,,2,3,115,8,247.354808374992,,,,,,,,,,,,,,,,,,,,,,,,,247.3483563339978,249.11857029199018,,,,,,,,915853,001,2024-05-12_00h27.20.449,creatingimagesNEW,2024.1.4,None,2024-05-12 00h27.26.955150 -0400,
"(-0.25, 0)",g,,0.0,"(0.1875, -0.1875)",,,,,2,4,116,14,249.12895429199853,,,,,,,,,,,,,,,,,,,,,,,,,249.11873616700177,250.49173133399745,,,,,,,,915853,001,2024-05-12_00h27.20.449,creatingimagesNEW,2024.1.4,None,2024-05-12 00h27.26.955150 -0400,
"(0.1875, 0.1875)",b,,"(0, -0.25)",0.0,,,,,2,5,117,49,250.4983620839921,,,,,,,,,,,,,,,,,,,,,,,,,250.49188866699114,251.76126462499087,,,,,,,,915853,001,2024-05-12_00h27.20.449,creatingimagesNEW,2024.1.4,None,2024-05-12 00h27.26.955150 -0400,
"(-0.1875, 0.1875)",g,,0.0,"(0.25, 0)",,,,,2,6,118,15,251.76817454199772,,,,,,,,,,,,,,,,,,,,,,,,,251.76142841699766,253.1309697090037,,,,,,,,915853,001,2024-05-12_00h27.20.449,creatingimagesNEW,2024.1.4,None,2024-05-12 00h27.26.955150 -0400,
"(-0.1875, -0.1875)",g,,"(0, 0.25)",0.0,,,,,2,7,119,37,253.13803554199694,,,,,,,,,,,,,,,,,,,,,,,,,253.13113945900113,254.8007122919953,,,,,,,,915853,001,2024-05-12_00h27.20.449,creatingimagesNEW,2024.1.4,None,2024-05-12 00h27.26.955150 -0400,
"(0, 0.25)",r,,0.0,"(-0.1875, -0.1875)",,,,,2,8,120,24,254.80993404200126,,,,,,,,,,,,,,,,,,,,,,,,,254.8008692500007,255.97227537499566,,,,,,,,915853,001,2024-05-12_00h27.20.449,creatingimagesNEW,2024.1.4,None,2024-05-12 00h27.26.955150 -0400,
"(0.1875, -0.1875)",g,,0.0,"(-0.25, 0)",,,,,2,9,121,11,255.9792500839976,,,,,,,,,,,,,,,,,,,,,,,,,255.97243999999773,257.84251641700394,,,,,,,,915853,001,2024-05-12_00h27.20.449,creatingimagesNEW,2024.1.4,None,2024-05-12 00h27.26.955150 -0400,
"(-0.25, 0)",g,,"(0.1875, -0.1875)",0.0,,,,,2,10,122,38,257.85126166699047,,,,,,,,,,,,,,,,,,,,,,,,,257.84267745900434,259.41397429199424,,,,,,,,915853,001,2024-05-12_00h27.20.449,creatingimagesNEW,2024.1.4,None,2024-05-12 00h27.26.955150 -0400,
"(-0.25, 0)",b,,"(0.1875, -0.1875)",0.0,,,,,2,11,123,54,259.42353600000206,,,,,,,,,,,,,,,,,,,,,,,,,259.41413658400415,260.88630579199526,,,,,,,,915853,001,2024-05-12_00h27.20.449,creatingimagesNEW,2024.1.4,None,2024-05-12 00h27.26.955150 -0400,
"(-0.1875, -0.1875)",r,,0.0,"(0, 0.25)",,,,,2,12,124,29,260.8956732499937,,,,,,,,,,,,,,,,,,,,,,,,,260.8864752919908,262.7596016669995,,,,,,,,915853,001,2024-05-12_00h27.20.449,creatingimagesNEW,2024.1.4,None,2024-05-12 00h27.26.955150 -0400,
"(0, -0.25)",g,,"(0.1875, 0.1875)",0.0,,,,,2,13,125,36,262.76919474999886,,,,,,,,,,,,,,,,,,,,,,,,,262.75977024999156,264.63244020899583,,,,,,,,915853,001,2024-05-12_00h27.20.449,creatingimagesNEW,2024.1.4,None,2024-05-12 00h27.26.955150 -0400,
"(0.25, 0)",b,,"(-0.1875, 0.1875)",0.0,,,,,2,14,126,50,264.64182666699344,,,,,,,,,,,,,,,,,,,,,,,,,264.63259779199143,266.4053243340022,,,,,,,,915853,001,2024-05-12_00h27.20.449,creatingimagesNEW,2024.1.4,None,2024-05-12 00h27.26.955150 -0400,
"(-0.1875, -0.1875)",r,,0.0,0.0,,,,,2,15,127,21,266.41469633400266,,,,,,,,,,,,,,,,,,,,,,,,,266.4054937500041,267.977870667004,,,,,,,,915853,001,2024-05-12_00h27.20.449,creatingimagesNEW,2024.1.4,None,2024-05-12 00h27.26.955150 -0400,
"(-0.25, 0)",r,,0.0,0.0,,,,,2,16,128,22,267.98675358400214,,,,,,,,,,,,,,,,,,,,,,,,,267.97802762499487,269.2492379589967,,,,,,,,915853,001,2024-05-12_00h27.20.449,creatingimagesNEW,2024.1.4,None,2024-05-12 00h27.26.955150 -0400,
"(-0.1875, -0.1875)",g,,0.0,0.0,,,,,2,17,129,5,269.2558088749938,,,,,,,,,,,,,,,,,,,,,,,,,269.2493959169951,270.61832804199366,,,,,,,,915853,001,2024-05-12_00h27.20.449,creatingimagesNEW,2024.1.4,None,2024-05-12 00h27.26.955150 -0400,
"(0, -0.25)",r,,0.0,0.0,,,,,2,18,130,20,270.62518183399516,,,,,,,,,,,,,,,,,,,,,,,,,270.61848629199085,271.98812312500377,,,,,,,,915853,001,2024-05-12_00h27.20.449,creatingimagesNEW,2024.1.4,None,2024-05-12 00h27.26.955150 -0400,
"(0.1875, -0.1875)",g,,0.0,0.0,,,,,2,19,131,3,271.99682249999023,,,,,,,,,,,,,,,,,,,,,,,,,271.98828770899854,273.9602246669965,,,,,,,,915853,001,2024-05-12_00h27.20.449,creatingimagesNEW,2024.1.4,None,2024-05-12 00h27.26.955150 -0400,
"(0.25, 0)",g,,0.0,0.0,,,,,2,20,132,2,273.97035249999317,,,,,,,,,,,,,,,,,,,,,,,,,273.9603924999974,275.2331339999946,,,,,,,,915853,001,2024-05-12_00h27.20.449,creatingimagesNEW,2024.1.4,None,2024-05-12 00h27.26.955150 -0400,
"(0.1875, 0.1875)",b,,0.0,0.0,,,,,2,21,133,41,275.2399732920021,,,,,,,,,,,,,,,,,,,,,,,,,275.2332924999937,276.70289033399604,,,,,,,,915853,001,2024-05-12_00h27.20.449,creatingimagesNEW,2024.1.4,None,2024-05-12 00h27.26.955150 -0400,
"(0, -0.25)",b,,"(0.1875, 0.1875)",0.0,,,,,2,22,134,52,276.7100072089961,,,,,,,,,,,,,,,,,,,,,,,,,276.70305387499684,278.3734745839902,,,,,,,,915853,001,2024-05-12_00h27.20.449,creatingimagesNEW,2024.1.4,None,2024-05-12 00h27.26.955150 -0400,
"(-0.1875, -0.1875)",g,,0.0,"(0, 0.25)",,,,,2,23,135,13,278.38273904199013,,,,,,,,,,,,,,,,,,,,,,,,,278.37363487499533,280.3463427090028,,,,,,,,915853,001,2024-05-12_00h27.20.449,creatingimagesNEW,2024.1.4,None,2024-05-12 00h27.26.955150 -0400,
"(-0.1875, -0.1875)",b,,0.0,0.0,,,,,2,24,136,45,280.3552877089969,,,,,,,,,,,,,,,,,,,,,,,,,280.3465066249919,281.6181469169969,,,,,,,,915853,001,2024-05-12_00h27.20.449,creatingimagesNEW,2024.1.4,None,2024-05-12 00h27.26.955150 -0400,
"(0.1875, 0.1875)",g,,"(0, -0.25)",0.0,,,,,2,25,137,33,281.6251659589907,,,,,,,,,,,,,,,,,,,,,,,,,281.6183122090006,283.6884721249953,,,,,,,,915853,001,2024-05-12_00h27.20.449,creatingimagesNEW,2024.1.4,None,2024-05-12 00h27.26.955150 -0400,
"(0, 0.25)",g,,0.0,0.0,,,,,2,26,138,0,283.69748129199434,,,,,,,,,,,,,,,,,,,,,,,,,283.68863508399227,285.26072049999493,,,,,,,,915853,001,2024-05-12_00h27.20.449,creatingimagesNEW,2024.1.4,None,2024-05-12 00h27.26.955150 -0400,
"(0.1875, 0.1875)",g,,0.0,"(0, -0.25)",,,,,2,27,139,9,285.27004591700097,,,,,,,,,,,,,,,,,,,,,,,,,285.2608858339954,286.7327741670015,,,,,,,,915853,001,2024-05-12_00h27.20.449,creatingimagesNEW,2024.1.4,None,2024-05-12 00h27.26.955150 -0400,
"(0, 0.25)",r,,0.0,0.0,,,,,2,28,140,16,286.74192283400043,,,,,,,,,,,,,,,,,,,,,,,,,286.73293570899114,287.80438116699224,,,,,,,,915853,001,2024-05-12_00h27.20.449,creatingimagesNEW,2024.1.4,None,2024-05-12 00h27.26.955150 -0400,
"(0.25, 0)",r,,0.0,"(-0.1875, 0.1875)",,,,,2,29,141,26,287.8108769590035,,,,,,,,,,,,,,,,,,,,,,,,,287.8045370000036,288.87277295900276,,,,,,,,915853,001,2024-05-12_00h27.20.449,creatingimagesNEW,2024.1.4,None,2024-05-12 00h27.26.955150 -0400,
"(0, 0.25)",b,,"(-0.1875, -0.1875)",0.0,,,,,2,30,142,48,288.87915041699307,,,,,,,,,,,,,,,,,,,,,,,,,288.87293262500316,290.3424270419928,,,,,,,,915853,001,2024-05-12_00h27.20.449,creatingimagesNEW,2024.1.4,None,2024-05-12 00h27.26.955150 -0400,
"(-0.25, 0)",g,,0.0,0.0,,,,,2,31,143,6,290.3514026670018,,,,,,,,,,,,,,,,,,,,,,,,,290.34258374999627,291.4141858340008,,,,,,,,915853,001,2024-05-12_00h27.20.449,creatingimagesNEW,2024.1.4,None,2024-05-12 00h27.26.955150 -0400,
"(-0.1875, 0.1875)",g,,"(0.25, 0)",0.0,,,,,2,32,144,39,291.42101916699903,,,,,,,,,,,,,,,,,,,,,,,,,291.41434437499265,293.0837596249912,,,,,,,,915853,001,2024-05-12_00h27.20.449,creatingimagesNEW,2024.1.4,None,2024-05-12 00h27.26.955150 -0400,
"(0.25, 0)",b,,0.0,0.0,,,,,2,33,145,42,293.09268312499626,,,,,,,,,,,,,,,,,,,,,,,,,293.0839189590042,294.25525012500293,,,,,,,,915853,001,2024-05-12_00h27.20.449,creatingimagesNEW,2024.1.4,None,2024-05-12 00h27.26.955150 -0400,
"(0.1875, -0.1875)",b,,0.0,0.0,,,,,2,34,146,43,294.26197062499705,,,,,,,,,,,,,,,,,,,,,,,,,294.25541029199667,295.4249909999926,,,,,,,,915853,001,2024-05-12_00h27.20.449,creatingimagesNEW,2024.1.4,None,2024-05-12 00h27.26.955150 -0400,
"(0.25, 0)",g,,0.0,"(-0.1875, 0.1875)",,,,,2,35,147,10,295.4315889999998,,,,,,,,,,,,,,,,,,,,,,,,,295.42514474999916,297.49533733399585,,,,,,,,915853,001,2024-05-12_00h27.20.449,creatingimagesNEW,2024.1.4,None,2024-05-12 00h27.26.955150 -0400,
"(0, -0.25)",r,,0.0,"(0.1875, 0.1875)",,,,,2,36,148,28,297.5041340839962,,,,,,,,,,,,,,,,,,,,,,,,,297.4954965420038,298.7668534169934,,,,,,,,915853,001,2024-05-12_00h27.20.449,creatingimagesNEW,2024.1.4,None,2024-05-12 00h27.26.955150 -0400,
"(-0.1875, 0.1875)",b,,"(0.25, 0)",0.0,,,,,2,37,149,55,298.7735200839961,,,,,,,,,,,,,,,,,,,,,,,,,298.76701483399665,300.4366977089958,,,,,,,,915853,001,2024-05-12_00h27.20.449,creatingimagesNEW,2024.1.4,None,2024-05-12 00h27.26.955150 -0400,
"(-0.25, 0)",r,,0.0,"(0.1875, -0.1875)",,,,,2,38,150,30,300.4453249999933,,,,,,,,,,,,,,,,,,,,,,,,,300.4368542500015,301.90845341699605,,,,,,,,915853,001,2024-05-12_00h27.20.449,creatingimagesNEW,2024.1.4,None,2024-05-12 00h27.26.955150 -0400,
"(0, -0.25)",g,,0.0,"(0.1875, 0.1875)",,,,,2,39,151,12,301.9176826670009,,,,,,,,,,,,,,,,,,,,,,,,,301.90861266700085,303.98128283399274,,,,,,,,915853,001,2024-05-12_00h27.20.449,creatingimagesNEW,2024.1.4,None,2024-05-12 00h27.26.955150 -0400,
"(0, -0.25)",g,,0.0,0.0,,,,,2,40,152,4,303.99063987500267,,,,,,,,,,,,,,,,,,,,,,,,,303.981442874996,305.5543380839954,,,,,,,,915853,001,2024-05-12_00h27.20.449,creatingimagesNEW,2024.1.4,None,2024-05-12 00h27.26.955150 -0400,
"(-0.1875, 0.1875)",r,,0.0,0.0,,,,,2,41,153,23,305.5637891669903,,,,,,,,,,,,,,,,,,,,,,,,,305.55450133400154,307.42715445900103,,,,,,,,915853,001,2024-05-12_00h27.20.449,creatingimagesNEW,2024.1.4,None,2024-05-12 00h27.26.955150 -0400,
"(0.1875, -0.1875)",g,,"(-0.25, 0)",0.0,,,,,2,42,154,35,307.4365824589913,,,,,,,,,,,,,,,,,,,,,,,,,307.4273184170015,309.099818333998,,,,,,,,915853,001,2024-05-12_00h27.20.449,creatingimagesNEW,2024.1.4,None,2024-05-12 00h27.26.955150 -0400,
"(0, 0.25)",g,,"(-0.1875, -0.1875)",0.0,,,,,2,43,155,32,309.1085819169966,,,,,,,,,,,,,,,,,,,,,,,,,309.09997999999905,310.8717775839905,,,,,,,,915853,001,2024-05-12_00h27.20.449,creatingimagesNEW,2024.1.4,None,2024-05-12 00h27.26.955150 -0400,
"(0.1875, -0.1875)",b,,"(-0.25, 0)",0.0,,,,,2,44,156,51,310.8808241249935,,,,,,,,,,,,,,,,,,,,,,,,,310.87194379199354,312.44435341699864,,,,,,,,915853,001,2024-05-12_00h27.20.449,creatingimagesNEW,2024.1.4,None,2024-05-12 00h27.26.955150 -0400,
"(0.25, 0)",r,,0.0,0.0,,,,,2,45,157,18,312.4524947919999,,,,,,,,,,,,,,,,,,,,,,,,,312.44451379199745,313.91510979199666,,,,,,,,915853,001,2024-05-12_00h27.20.449,creatingimagesNEW,2024.1.4,None,2024-05-12 00h27.26.955150 -0400,
"(0.1875, 0.1875)",r,,0.0,0.0,,,,,2,46,158,17,313.9234023750032,,,,,,,,,,,,,,,,,,,,,,,,,313.91526920899923,315.38641500000085,,,,,,,,915853,001,2024-05-12_00h27.20.449,creatingimagesNEW,2024.1.4,None,2024-05-12 00h27.26.955150 -0400,
"(0.1875, 0.1875)",r,,0.0,"(0, -0.25)",,,,,2,47,159,25,315.39331579199643,,,,,,,,,,,,,,,,,,,,,,,,,315.3865711249964,316.5964768749982,,,,,,,,915853,001,2024-05-12_00h27.20.449,creatingimagesNEW,2024.1.4,None,2024-05-12 00h27.26.955150 -0400,
"(0.1875, -0.1875)",r,,0.0,0.0,,,,,2,48,160,19,316.6033012919943,,,,,,,,,,,,,,,,,,,,,,,,,316.5966354169941,317.8657931249909,,,,,,,,915853,001,2024-05-12_00h27.20.449,creatingimagesNEW,2024.1.4,None,2024-05-12 00h27.26.955150 -0400,
"(-0.1875, -0.1875)",b,,"(0, 0.25)",0.0,,,,,2,49,161,53,317.87267079199955,,,,,,,,,,,,,,,,,,,,,,,,,317.8659589589952,319.33538083400344,,,,,,,,915853,001,2024-05-12_00h27.20.449,creatingimagesNEW,2024.1.4,None,2024-05-12 00h27.26.955150 -0400,
"(0.1875, -0.1875)",r,,0.0,"(-0.25, 0)",,,,,2,50,162,27,319.34271316700324,,,,,,,,,,,,,,,,,,,,,,,,,319.3355476669967,320.70529050000187,,,,,,,,915853,001,2024-05-12_00h27.20.449,creatingimagesNEW,2024.1.4,None,2024-05-12 00h27.26.955150 -0400,
"(-0.1875, 0.1875)",g,,0.0,0.0,,,,,2,51,163,7,320.71241054199345,,,,,,,,,,,,,,,,,,,,,,,,,320.7054907499987,321.77508966700407,,,,,,,,915853,001,2024-05-12_00h27.20.449,creatingimagesNEW,2024.1.4,None,2024-05-12 00h27.26.955150 -0400,
"(0.1875, 0.1875)",g,,0.0,0.0,,,,,2,52,164,1,321.7814805419912,,,,,,,,,,,,,,,,,,,,,,,,,321.77525012499245,322.84361341700424,,,,,,,,915853,001,2024-05-12_00h27.20.449,creatingimagesNEW,2024.1.4,None,2024-05-12 00h27.26.955150 -0400,
"(-0.25, 0)",b,,0.0,0.0,,,,,2,53,165,46,322.8502747500024,,,,,,,,,,,,,,,,,,,,,,,,,322.84377074999793,324.01289683399955,,,,,,,,915853,001,2024-05-12_00h27.20.449,creatingimagesNEW,2024.1.4,None,2024-05-12 00h27.26.955150 -0400,
"(0, -0.25)",b,,0.0,0.0,,,,,2,54,166,44,324.0202654169989,,,,,,,,,,,,,,,,,,,,,,,,,324.01306158400257,325.28292845899705,,,,,,,,915853,001,2024-05-12_00h27.20.449,creatingimagesNEW,2024.1.4,None,2024-05-12 00h27.26.955150 -0400,
"(-0.1875, 0.1875)",b,,0.0,0.0,,,,,2,55,167,47,325.289701458998,,,,,,,,,,,,,,,,,,,,,,,,,325.2830902499991,326.4520558749937,,,,,,,,915853,001,2024-05-12_00h27.20.449,creatingimagesNEW,2024.1.4,None,2024-05-12 00h27.26.955150 -0400,
"(-0.1875, -0.1875)",g,,0.0,0.0,,,,,3,0,168,5,326.45868333399994,,,,,,,,,,,,,,,,,,,,,,,,,326.45221916699666,327.62133541700314,,,,,,,,915853,001,2024-05-12_00h27.20.449,creatingimagesNEW,2024.1.4,None,2024-05-12 00h27.26.955150 -0400,
"(0.1875, -0.1875)",r,,0.0,"(-0.25, 0)",,,,,3,1,169,27,327.62879237499146,,,,,,,,,,,,,,,,,,,,,,,,,327.6214934169984,329.191481834001,,,,,,,,915853,001,2024-05-12_00h27.20.449,creatingimagesNEW,2024.1.4,None,2024-05-12 00h27.26.955150 -0400,
"(0.25, 0)",b,,"(-0.1875, 0.1875)",0.0,,,,,3,2,170,50,329.2004463339981,,,,,,,,,,,,,,,,,,,,,,,,,329.1916402920033,330.3630568749941,,,,,,,,915853,001,2024-05-12_00h27.20.449,creatingimagesNEW,2024.1.4,None,2024-05-12 00h27.26.955150 -0400,
"(0.1875, 0.1875)",g,,0.0,"(0, -0.25)",,,,,3,3,171,9,330.36985920899315,,,,,,,,,,,,,,,,,,,,,,,,,330.36322216699773,331.83372445899295,,,,,,,,915853,001,2024-05-12_00h27.20.449,creatingimagesNEW,2024.1.4,None,2024-05-12 00h27.26.955150 -0400,
"(-0.25, 0)",b,,"(0.1875, -0.1875)",0.0,,,,,3,4,172,54,331.8426904999942,,,,,,,,,,,,,,,,,,,,,,,,,331.83389754199015,333.00549095899623,,,,,,,,915853,001,2024-05-12_00h27.20.449,creatingimagesNEW,2024.1.4,None,2024-05-12 00h27.26.955150 -0400,
"(-0.1875, -0.1875)",g,,0.0,"(0, 0.25)",,,,,3,5,173,13,333.0121879590006,,,,,,,,,,,,,,,,,,,,,,,,,333.00564862499596,334.57574070899864,,,,,,,,915853,001,2024-05-12_00h27.20.449,creatingimagesNEW,2024.1.4,None,2024-05-12 00h27.26.955150 -0400,
"(-0.25, 0)",g,,"(0.1875, -0.1875)",0.0,,,,,3,6,174,38,334.58522066699516,,,,,,,,,,,,,,,,,,,,,,,,,334.5759064589947,335.94758799999545,,,,,,,,915853,001,2024-05-12_00h27.20.449,creatingimagesNEW,2024.1.4,None,2024-05-12 00h27.26.955150 -0400,
"(0, -0.25)",g,,0.0,"(0.1875, 0.1875)",,,,,3,7,175,12,335.95679433399346,,,,,,,,,,,,,,,,,,,,,,,,,335.9477484169911,337.82008304199553,,,,,,,,915853,001,2024-05-12_00h27.20.449,creatingimagesNEW,2024.1.4,None,2024-05-12 00h27.26.955150 -0400,
"(-0.1875, -0.1875)",r,,0.0,0.0,,,,,3,8,176,21,337.8293267919944,,,,,,,,,,,,,,,,,,,,,,,,,337.82024091698986,339.19199199999275,,,,,,,,915853,001,2024-05-12_00h27.20.449,creatingimagesNEW,2024.1.4,None,2024-05-12 00h27.26.955150 -0400,
"(0.1875, 0.1875)",b,,0.0,0.0,,,,,3,9,177,41,339.1987385419925,,,,,,,,,,,,,,,,,,,,,,,,,339.19214891699085,340.2606867919967,,,,,,,,915853,001,2024-05-12_00h27.20.449,creatingimagesNEW,2024.1.4,None,2024-05-12 00h27.26.955150 -0400,
"(-0.1875, -0.1875)",b,,0.0,0.0,,,,,3,10,178,45,340.2675352090009,,,,,,,,,,,,,,,,,,,,,,,,,340.2608548749995,341.3308164170012,,,,,,,,915853,001,2024-05-12_00h27.20.449,creatingimagesNEW,2024.1.4,None,2024-05-12 00h27.26.955150 -0400,
"(-0.25, 0)",b,,0.0,0.0,,,,,3,11,179,46,341.3373009170027,,,,,,,,,,,,,,,,,,,,,,,,,341.3309732499911,342.59986733399273,,,,,,,,915853,001,2024-05-12_00h27.20.449,creatingimagesNEW,2024.1.4,None,2024-05-12 00h27.26.955150 -0400,
"(-0.25, 0)",r,,0.0,0.0,,,,,3,12,180,22,342.60683599999174,,,,,,,,,,,,,,,,,,,,,,,,,342.6000417089963,343.7687624169921,,,,,,,,915853,001,2024-05-12_00h27.20.449,creatingimagesNEW,2024.1.4,None,2024-05-12 00h27.26.955150 -0400,
"(0.25, 0)",g,,0.0,0.0,,,,,3,13,181,2,343.7758617090003,,,,,,,,,,,,,,,,,,,,,,,,,343.7689374170004,344.8376814999938,,,,,,,,915853,001,2024-05-12_00h27.20.449,creatingimagesNEW,2024.1.4,None,2024-05-12 00h27.26.955150 -0400,
"(-0.25, 0)",r,,0.0,"(0.1875, -0.1875)",,,,,3,14,182,30,344.84421179199126,,,,,,,,,,,,,,,,,,,,,,,,,344.83783520899306,345.9069447090005,,,,,,,,915853,001,2024-05-12_00h27.20.449,creatingimagesNEW,2024.1.4,None,2024-05-12 00h27.26.955150 -0400,
"(-0.1875, 0.1875)",r,,0.0,0.0,,,,,3,15,183,23,345.9138757089968,,,,,,,,,,,,,,,,,,,,,,,,,345.9071066250035,347.07648362500186,,,,,,,,915853,001,2024-05-12_00h27.20.449,creatingimagesNEW,2024.1.4,None,2024-05-12 00h27.26.955150 -0400,
"(0, 0.25)",g,,"(-0.1875, -0.1875)",0.0,,,,,3,16,184,32,347.08320325000386,,,,,,,,,,,,,,,,,,,,,,,,,347.07664162499714,348.34570883399283,,,,,,,,915853,001,2024-05-12_00h27.20.449,creatingimagesNEW,2024.1.4,None,2024-05-12 00h27.26.955150 -0400,
"(0.1875, -0.1875)",b,,"(-0.25, 0)",0.0,,,,,3,17,185,51,348.352498459004,,,,,,,,,,,,,,,,,,,,,,,,,348.34586883400334,349.9154065420007,,,,,,,,915853,001,2024-05-12_00h27.20.449,creatingimagesNEW,2024.1.4,None,2024-05-12 00h27.26.955150 -0400,
"(-0.1875, -0.1875)",r,,0.0,"(0, 0.25)",,,,,3,18,186,29,349.92504962500243,,,,,,,,,,,,,,,,,,,,,,,,,349.9155658749951,351.0883186249994,,,,,,,,915853,001,2024-05-12_00h27.20.449,creatingimagesNEW,2024.1.4,None,2024-05-12 00h27.26.955150 -0400,
"(-0.25, 0)",g,,0.0,"(0.1875, -0.1875)",,,,,3,19,187,14,351.0949739170028,,,,,,,,,,,,,,,,,,,,,,,,,351.08847883398994,353.05790874999366,,,,,,,,915853,001,2024-05-12_00h27.20.449,creatingimagesNEW,2024.1.4,None,2024-05-12 00h27.26.955150 -0400,
"(0, 0.25)",r,,0.0,"(-0.1875, -0.1875)",,,,,3,20,188,24,353.0678925419925,,,,,,,,,,,,,,,,,,,,,,,,,353.0580665419984,354.1305031669908,,,,,,,,915853,001,2024-05-12_00h27.20.449,creatingimagesNEW,2024.1.4,None,2024-05-12 00h27.26.955150 -0400,
"(0.1875, -0.1875)",r,,0.0,0.0,,,,,3,21,189,19,354.1369641670026,,,,,,,,,,,,,,,,,,,,,,,,,354.13065887500125,355.49963799999387,,,,,,,,915853,001,2024-05-12_00h27.20.449,creatingimagesNEW,2024.1.4,None,2024-05-12 00h27.26.955150 -0400,
"(0.1875, 0.1875)",r,,0.0,"(0, -0.25)",,,,,3,22,190,25,355.50638070899004,,,,,,,,,,,,,,,,,,,,,,,,,355.49979633399926,356.66892666700005,,,,,,,,915853,001,2024-05-12_00h27.20.449,creatingimagesNEW,2024.1.4,None,2024-05-12 00h27.26.955150 -0400,
"(0.25, 0)",r,,0.0,"(-0.1875, 0.1875)",,,,,3,23,191,26,356.6758217500028,,,,,,,,,,,,,,,,,,,,,,,,,356.6690902499977,358.0388122500008,,,,,,,,915853,001,2024-05-12_00h27.20.449,creatingimagesNEW,2024.1.4,None,2024-05-12 00h27.26.955150 -0400,
"(0, -0.25)",b,,0.0,0.0,,,,,3,24,192,44,358.0454655420035,,,,,,,,,,,,,,,,,,,,,,,,,358.0389676249906,359.2076367499976,,,,,,,,915853,001,2024-05-12_00h27.20.449,creatingimagesNEW,2024.1.4,None,2024-05-12 00h27.26.955150 -0400,
"(-0.1875, -0.1875)",b,,"(0, 0.25)",0.0,,,,,3,25,193,53,359.21449604199734,,,,,,,,,,,,,,,,,,,,,,,,,359.20779899999616,360.3775757919939,,,,,,,,915853,001,2024-05-12_00h27.20.449,creatingimagesNEW,2024.1.4,None,2024-05-12 00h27.26.955150 -0400,
"(0, 0.25)",r,,0.0,0.0,,,,,3,26,194,16,360.38431216699246,,,,,,,,,,,,,,,,,,,,,,,,,360.37773662499967,361.44703712499177,,,,,,,,915853,001,2024-05-12_00h27.20.449,creatingimagesNEW,2024.1.4,None,2024-05-12 00h27.26.955150 -0400,
"(0.1875, 0.1875)",g,,0.0,0.0,,,,,3,27,195,1,361.4536978749966,,,,,,,,,,,,,,,,,,,,,,,,,361.44719454199367,362.716260125002,,,,,,,,915853,001,2024-05-12_00h27.20.449,creatingimagesNEW,2024.1.4,None,2024-05-12 00h27.26.955150 -0400,
"(0, -0.25)",g,,"(0.1875, 0.1875)",0.0,,,,,3,28,196,36,362.7232334589935,,,,,,,,,,,,,,,,,,,,,,,,,362.7164159590029,364.38634712499334,,,,,,,,915853,001,2024-05-12_00h27.20.449,creatingimagesNEW,2024.1.4,None,2024-05-12 00h27.26.955150 -0400,
"(0.1875, -0.1875)",g,,0.0,"(-0.25, 0)",,,,,3,29,197,11,364.3961962089961,,,,,,,,,,,,,,,,,,,,,,,,,364.38650433399016,365.95928133399866,,,,,,,,915853,001,2024-05-12_00h27.20.449,creatingimagesNEW,2024.1.4,None,2024-05-12 00h27.26.955150 -0400,
"(0, -0.25)",r,,0.0,"(0.1875, 0.1875)",,,,,3,30,198,28,365.96867208399635,,,,,,,,,,,,,,,,,,,,,,,,,365.9594474589976,367.33143612499407,,,,,,,,915853,001,2024-05-12_00h27.20.449,creatingimagesNEW,2024.1.4,None,2024-05-12 00h27.26.955150 -0400,
"(0.1875, 0.1875)",r,,0.0,0.0,,,,,3,31,199,17,367.3382645419915,,,,,,,,,,,,,,,,,,,,,,,,,367.3315985419904,368.30117891699774,,,,,,,,915853,001,2024-05-12_00h27.20.449,creatingimagesNEW,2024.1.4,None,2024-05-12 00h27.26.955150 -0400,
"(0.25, 0)",g,,0.0,"(-0.1875, 0.1875)",,,,,3,32,200,10,368.3080062499939,,,,,,,,,,,,,,,,,,,,,,,,,368.30134358399664,369.2703416669974,,,,,,,,915853,001,2024-05-12_00h27.20.449,creatingimagesNEW,2024.1.4,None,2024-05-12 00h27.26.955150 -0400,
"(-0.1875, -0.1875)",g,,"(0, 0.25)",0.0,,,,,3,33,201,37,369.27748683399113,,,,,,,,,,,,,,,,,,,,,,,,,369.2705017499975,370.940267375001,,,,,,,,915853,001,2024-05-12_00h27.20.449,creatingimagesNEW,2024.1.4,None,2024-05-12 00h27.26.955150 -0400,
"(-0.1875, 0.1875)",r,,0.0,"(0.25, 0)",,,,,3,34,202,31,370.9498052919953,,,,,,,,,,,,,,,,,,,,,,,,,370.94042625000293,372.51295216700237,,,,,,,,915853,001,2024-05-12_00h27.20.449,creatingimagesNEW,2024.1.4,None,2024-05-12 00h27.26.955150 -0400,
"(0, 0.25)",g,,0.0,0.0,,,,,3,35,203,0,372.52175487499335,,,,,,,,,,,,,,,,,,,,,,,,,372.51313474999915,373.5841822090006,,,,,,,,915853,001,2024-05-12_00h27.20.449,creatingimagesNEW,2024.1.4,None,2024-05-12 00h27.26.955150 -0400,
"(-0.1875, 0.1875)",b,,0.0,0.0,,,,,3,36,204,47,373.59079324999766,,,,,,,,,,,,,,,,,,,,,,,,,373.58434745899285,374.75295787499635,,,,,,,,915853,001,2024-05-12_00h27.20.449,creatingimagesNEW,2024.1.4,None,2024-05-12 00h27.26.955150 -0400,
"(0.25, 0)",g,,"(-0.1875, 0.1875)",0.0,,,,,3,37,205,34,374.75967537499673,,,,,,,,,,,,,,,,,,,,,,,,,374.7531108339899,376.12203862499155,,,,,,,,915853,001,2024-05-12_00h27.20.449,creatingimagesNEW,2024.1.4,None,2024-05-12 00h27.26.955150 -0400,
"(-0.1875, 0.1875)",b,,"(0.25, 0)",0.0,,,,,3,38,206,55,376.12876549999055,,,,,,,,,,,,,,,,,,,,,,,,,376.1221995840024,377.1912163340021,,,,,,,,915853,001,2024-05-12_00h27.20.449,creatingimagesNEW,2024.1.4,None,2024-05-12 00h27.26.955150 -0400,
"(-0.1875, 0.1875)",g,,"(0.25, 0)",0.0,,,,,3,39,207,39,377.19761091699183,,,,,,,,,,,,,,,,,,,,,,,,,377.1913725839986,378.66024095899775,,,,,,,,915853,001,2024-05-12_00h27.20.449,creatingimagesNEW,2024.1.4,None,2024-05-12 00h27.26.955150 -0400,
"(0, -0.25)",g,,0.0,0.0,,,,,3,40,208,4,378.6699229169899,,,,,,,,,,,,,,,,,,,,,,,,,378.6604014170007,379.9326835840038,,,,,,,,915853,001,2024-05-12_00h27.20.449,creatingimagesNEW,2024.1.4,None,2024-05-12 00h27.26.955150 -0400,
"(0, 0.25)",g,,0.0,"(-0.1875, -0.1875)",,,,,3,41,209,8,379.9395305420039,,,,,,,,,,,,,,,,,,,,,,,,,379.9328488339961,381.70285716699436,,,,,,,,915853,001,2024-05-12_00h27.20.449,creatingimagesNEW,2024.1.4,None,2024-05-12 00h27.26.955150 -0400,
"(0.1875, -0.1875)",g,,0.0,0.0,,,,,3,42,210,3,381.71267912499025,,,,,,,,,,,,,,,,,,,,,,,,,381.70302795899624,383.1756390840019,,,,,,,,915853,001,2024-05-12_00h27.20.449,creatingimagesNEW,2024.1.4,None,2024-05-12 00h27.26.955150 -0400,
"(0.25, 0)",r,,0.0,0.0,,,,,3,43,211,18,383.1825415420026,,,,,,,,,,,,,,,,,,,,,,,,,383.1757977090019,384.34490850000293,,,,,,,,915853,001,2024-05-12_00h27.20.449,creatingimagesNEW,2024.1.4,None,2024-05-12 00h27.26.955150 -0400,
"(0, 0.25)",b,,0.0,0.0,,,,,3,44,212,40,384.35193245900155,,,,,,,,,,,,,,,,,,,,,,,,,384.345067000002,385.71477112499997,,,,,,,,915853,001,2024-05-12_00h27.20.449,creatingimagesNEW,2024.1.4,None,2024-05-12 00h27.26.955150 -0400,
"(0.1875, -0.1875)",b,,0.0,0.0,,,,,3,45,213,43,385.7216019589978,,,,,,,,,,,,,,,,,,,,,,,,,385.7149347499944,386.88449229199614,,,,,,,,915853,001,2024-05-12_00h27.20.449,creatingimagesNEW,2024.1.4,None,2024-05-12 00h27.26.955150 -0400,
"(-0.25, 0)",g,,0.0,0.0,,,,,3,46,214,6,386.89125225000316,,,,,,,,,,,,,,,,,,,,,,,,,386.8846466249961,387.95414633399923,,,,,,,,915853,001,2024-05-12_00h27.20.449,creatingimagesNEW,2024.1.4,None,2024-05-12 00h27.26.955150 -0400,
"(-0.1875, 0.1875)",g,,0.0,0.0,,,,,3,47,215,7,387.9607722090004,,,,,,,,,,,,,,,,,,,,,,,,,387.9543061669974,389.72362774999056,,,,,,,,915853,001,2024-05-12_00h27.20.449,creatingimagesNEW,2024.1.4,None,2024-05-12 00h27.26.955150 -0400,
"(0.1875, -0.1875)",g,,"(-0.25, 0)",0.0,,,,,3,48,216,35,389.73281541699544,,,,,,,,,,,,,,,,,,,,,,,,,389.7238059999945,391.29592320899246,,,,,,,,915853,001,2024-05-12_00h27.20.449,creatingimagesNEW,2024.1.4,None,2024-05-12 00h27.26.955150 -0400,
"(0.25, 0)",b,,0.0,0.0,,,,,3,49,217,42,391.30501654199907,,,,,,,,,,,,,,,,,,,,,,,,,391.29608133400325,392.468088374997,,,,,,,,915853,001,2024-05-12_00h27.20.449,creatingimagesNEW,2024.1.4,None,2024-05-12 00h27.26.955150 -0400,
"(0.1875, 0.1875)",g,,"(0, -0.25)",0.0,,,,,3,50,218,33,392.47488308399625,,,,,,,,,,,,,,,,,,,,,,,,,392.46825312500005,394.0381846669916,,,,,,,,915853,001,2024-05-12_00h27.20.449,creatingimagesNEW,2024.1.4,None,2024-05-12 00h27.26.955150 -0400,
"(0, -0.25)",r,,0.0,0.0,,,,,3,51,219,20,394.0494892089919,,,,,,,,,,,,,,,,,,,,,,,,,394.0383487090003,395.5123685839935,,,,,,,,915853,001,2024-05-12_00h27.20.449,creatingimagesNEW,2024.1.4,None,2024-05-12 00h27.26.955150 -0400,
"(0, 0.25)",b,,"(-0.1875, -0.1875)",0.0,,,,,3,52,220,48,395.5193774590007,,,,,,,,,,,,,,,,,,,,,,,,,395.51252925000153,396.8821569169959,,,,,,,,915853,001,2024-05-12_00h27.20.449,creatingimagesNEW,2024.1.4,None,2024-05-12 00h27.26.955150 -0400,
"(0, -0.25)",b,,"(0.1875, 0.1875)",0.0,,,,,3,53,221,52,396.88891004199104,,,,,,,,,,,,,,,,,,,,,,,,,396.88232012499066,398.49409891699906,,,,,,,,915853,001,2024-05-12_00h27.20.449,creatingimagesNEW,2024.1.4,None,2024-05-12 00h27.26.955150 -0400,
"(0.1875, 0.1875)",b,,"(0, -0.25)",0.0,,,,,3,54,222,49,398.50193795899395,,,,,,,,,,,,,,,,,,,,,,,,,398.49425649999466,399.8646343339933,,,,,,,,915853,001,2024-05-12_00h27.20.449,creatingimagesNEW,2024.1.4,None,2024-05-12 00h27.26.955150 -0400,
"(-0.1875, 0.1875)",g,,0.0,"(0.25, 0)",,,,,3,55,223,15,399.87245466699824,,,,,,,,,,,,,,,,,,,,,,,,,399.864795417001,401.1355530839937,,,,,,,,915853,001,2024-05-12_00h27.20.449,creatingimagesNEW,2024.1.4,None,2024-05-12 00h27.26.955150 -0400,
,,,,,,,,,,,,,,,,,,,,,,,,,,,,,,,,,,,,,,,,401.1355912500003,401.1423715839919,401.1423715839919,402.2886432499945,space,1.143501958998968,None,915853,001,2024-05-12_00h27.20.449,creatingimagesNEW,2024.1.4,None,2024-05-12 00h27.26.955150 -0400,
