triangle_pos,triangle_color,pink_circle_pos,trials.thisRepN,trials.thisTrialN,trials.thisN,trials.thisIndex,thisRow.t,notes,trial.started,trial.stopped,participant,session,date,expName,psychopyVersion,frameRate,expStart,
"(3, 3)",g,0.0,0,0,0,1,0.2337642080092337,,0.05913945801148657,0.06098516700149048,941335,001,2024-05-01_16h03.44.863,test2_run,2024.1.4,None,2024-05-01 16h03.53.647816 -0400,
"(0, 4)",g,"(-3, -3)",0,1,1,8,0.2337642080092337,,0.06116358299914282,0.061355124998954125,941335,001,2024-05-01_16h03.44.863,test2_run,2024.1.4,None,2024-05-01 16h03.53.647816 -0400,
"(4, 0)",g,0.0,0,2,2,2,0.2337642080092337,,0.06152375000237953,0.061707500004558824,941335,001,2024-05-01_16h03.44.863,test2_run,2024.1.4,None,2024-05-01 16h03.53.647816 -0400,
"(-3, -3)",g,"(-4, 0)",0,3,3,13,0.2337642080092337,,0.06185370800085366,0.06197187500947621,941335,001,2024-05-01_16h03.44.863,test2_run,2024.1.4,None,2024-05-01 16h03.53.647816 -0400,
"(3, -3)",p,0.0,0,4,4,19,0.2337642080092337,,0.06211483301012777,0.06222829200851265,941335,001,2024-05-01_16h03.44.863,test2_run,2024.1.4,None,2024-05-01 16h03.53.647816 -0400,
"(-3, 3)",p,0.0,0,5,5,23,0.2337642080092337,,0.062362042008317076,0.062474167003529146,941335,001,2024-05-01_16h03.44.863,test2_run,2024.1.4,None,2024-05-01 16h03.53.647816 -0400,
"(-3, 3)",g,"(3, 3)",0,6,6,15,0.2337642080092337,,0.0626094580075005,0.06276879200595431,941335,001,2024-05-01_16h03.44.863,test2_run,2024.1.4,None,2024-05-01 16h03.53.647816 -0400,
"(-4, 0)",g,"(3, -3)",0,7,7,14,0.2337642080092337,,0.06291262499871664,0.06302654200408142,941335,001,2024-05-01_16h03.44.863,test2_run,2024.1.4,None,2024-05-01 16h03.53.647816 -0400,
"(-4, 0)",g,0.0,0,8,8,6,0.2337642080092337,,0.06316016700293403,0.0632686669996474,941335,001,2024-05-01_16h03.44.863,test2_run,2024.1.4,None,2024-05-01 16h03.53.647816 -0400,
"(-3, -3)",g,0.0,0,9,9,5,0.2337642080092337,,0.06339870800729841,0.0635695420060074,941335,001,2024-05-01_16h03.44.863,test2_run,2024.1.4,None,2024-05-01 16h03.53.647816 -0400,
"(4, 0)",p,0.0,0,10,10,18,0.2337642080092337,,0.06370954200974666,0.0638750830112258,941335,001,2024-05-01_16h03.44.863,test2_run,2024.1.4,None,2024-05-01 16h03.53.647816 -0400,
"(3, -3)",g,"(4, 0)",0,11,11,11,0.2337642080092337,,0.06401200000254903,0.06412691700097639,941335,001,2024-05-01_16h03.44.863,test2_run,2024.1.4,None,2024-05-01 16h03.53.647816 -0400,
"(3, 3)",g,"(0, -4)",0,12,12,9,0.2337642080092337,,0.06425833300454542,0.06436787500570063,941335,001,2024-05-01_16h03.44.863,test2_run,2024.1.4,None,2024-05-01 16h03.53.647816 -0400,
"(0, -4)",g,"(-3, 3)",0,13,13,12,0.2337642080092337,,0.0644980830111308,0.06461616700107697,941335,001,2024-05-01_16h03.44.863,test2_run,2024.1.4,None,2024-05-01 16h03.53.647816 -0400,
"(3, -3)",g,0.0,0,14,14,3,0.2337642080092337,,0.06474970800627489,0.0649207920068875,941335,001,2024-05-01_16h03.44.863,test2_run,2024.1.4,None,2024-05-01 16h03.53.647816 -0400,
"(0, 4)",g,0.0,0,15,15,0,0.2337642080092337,,0.0650625830021454,0.06517645801068284,941335,001,2024-05-01_16h03.44.863,test2_run,2024.1.4,None,2024-05-01 16h03.53.647816 -0400,
"(-3, 3)",g,0.0,0,16,16,7,0.2337642080092337,,0.06531104200985283,0.06541945799835958,941335,001,2024-05-01_16h03.44.863,test2_run,2024.1.4,None,2024-05-01 16h03.53.647816 -0400,
"(-3, -3)",p,0.0,0,17,17,21,0.2337642080092337,,0.06555295801081229,0.06565987500653137,941335,001,2024-05-01_16h03.44.863,test2_run,2024.1.4,None,2024-05-01 16h03.53.647816 -0400,
"(0, -4)",g,0.0,0,18,18,4,0.2337642080092337,,0.0657920829980867,0.06594929200946353,941335,001,2024-05-01_16h03.44.863,test2_run,2024.1.4,None,2024-05-01 16h03.53.647816 -0400,
"(-4, 0)",p,0.0,0,19,19,22,0.2337642080092337,,0.06608958300785162,0.06621379200078081,941335,001,2024-05-01_16h03.44.863,test2_run,2024.1.4,None,2024-05-01 16h03.53.647816 -0400,
"(0, 4)",p,0.0,0,20,20,16,0.2337642080092337,,0.06634429200494196,0.06645266700070351,941335,001,2024-05-01_16h03.44.863,test2_run,2024.1.4,None,2024-05-01 16h03.53.647816 -0400,
"(4, 0)",g,"(0, 4)",0,21,21,10,0.2337642080092337,,0.06657908300985582,0.06668454200553242,941335,001,2024-05-01_16h03.44.863,test2_run,2024.1.4,None,2024-05-01 16h03.53.647816 -0400,
"(0, -4)",p,0.0,0,22,22,20,0.2337642080092337,,0.06680929200956598,0.06698175000201445,941335,001,2024-05-01_16h03.44.863,test2_run,2024.1.4,None,2024-05-01 16h03.53.647816 -0400,
"(3, 3)",p,0.0,0,23,23,17,0.2337642080092337,,0.067132791999029,0.0672480000066571,941335,001,2024-05-01_16h03.44.863,test2_run,2024.1.4,None,2024-05-01 16h03.53.647816 -0400,
"(-3, 3)",g,"(3, 3)",1,0,24,15,0.2337642080092337,,0.0673856670036912,0.06749650000710972,941335,001,2024-05-01_16h03.44.863,test2_run,2024.1.4,None,2024-05-01 16h03.53.647816 -0400,
"(3, 3)",p,0.0,1,1,25,17,0.2337642080092337,,0.06762741701095365,0.06773533301020507,941335,001,2024-05-01_16h03.44.863,test2_run,2024.1.4,None,2024-05-01 16h03.53.647816 -0400,
"(-4, 0)",g,0.0,1,2,26,6,0.2337642080092337,,0.06786066699714866,0.06801645799714606,941335,001,2024-05-01_16h03.44.863,test2_run,2024.1.4,None,2024-05-01 16h03.53.647816 -0400,
"(0, 4)",g,"(-3, -3)",1,3,27,8,0.2337642080092337,,0.06815441700746305,0.06826829200144857,941335,001,2024-05-01_16h03.44.863,test2_run,2024.1.4,None,2024-05-01 16h03.53.647816 -0400,
"(4, 0)",g,0.0,1,4,28,2,0.2337642080092337,,0.06839883299835492,0.06850787501025479,941335,001,2024-05-01_16h03.44.863,test2_run,2024.1.4,None,2024-05-01 16h03.53.647816 -0400,
"(3, -3)",g,0.0,1,5,29,3,0.2337642080092337,,0.06864166700688656,0.06875041700550355,941335,001,2024-05-01_16h03.44.863,test2_run,2024.1.4,None,2024-05-01 16h03.53.647816 -0400,
"(-4, 0)",g,"(3, -3)",1,6,30,14,0.2337642080092337,,0.06887883300078101,0.06903895799769089,941335,001,2024-05-01_16h03.44.863,test2_run,2024.1.4,None,2024-05-01 16h03.53.647816 -0400,
"(3, -3)",g,"(4, 0)",1,7,31,11,0.2337642080092337,,0.06918062501063105,0.06929395800398197,941335,001,2024-05-01_16h03.44.863,test2_run,2024.1.4,None,2024-05-01 16h03.53.647816 -0400,
"(-3, 3)",p,0.0,1,8,32,23,0.2337642080092337,,0.06942862500727642,0.06954008300090209,941335,001,2024-05-01_16h03.44.863,test2_run,2024.1.4,None,2024-05-01 16h03.53.647816 -0400,
"(3, 3)",g,0.0,1,9,33,1,0.2337642080092337,,0.06967291700129863,0.06979245800175704,941335,001,2024-05-01_16h03.44.863,test2_run,2024.1.4,None,2024-05-01 16h03.53.647816 -0400,
"(0, -4)",g,0.0,1,10,34,4,0.2337642080092337,,0.06992820800223853,0.07008925000263844,941335,001,2024-05-01_16h03.44.863,test2_run,2024.1.4,None,2024-05-01 16h03.53.647816 -0400,
"(0, 4)",g,0.0,1,11,35,0,0.2337642080092337,,0.07023008300166111,0.070342332997825,941335,001,2024-05-01_16h03.44.863,test2_run,2024.1.4,None,2024-05-01 16h03.53.647816 -0400,
"(0, -4)",g,"(-3, 3)",1,12,36,12,0.2337642080092337,,0.07047962500655558,0.07059450000815559,941335,001,2024-05-01_16h03.44.863,test2_run,2024.1.4,None,2024-05-01 16h03.53.647816 -0400,
"(4, 0)",p,0.0,1,13,37,18,0.2337642080092337,,0.07072175000212155,0.07082754200382624,941335,001,2024-05-01_16h03.44.863,test2_run,2024.1.4,None,2024-05-01 16h03.53.647816 -0400,
"(-3, -3)",p,0.0,1,14,38,21,0.2337642080092337,,0.07095295800536405,0.0711093330028234,941335,001,2024-05-01_16h03.44.863,test2_run,2024.1.4,None,2024-05-01 16h03.53.647816 -0400,
"(0, 4)",p,0.0,1,15,39,16,0.2337642080092337,,0.07124737500271294,0.07135862500581425,941335,001,2024-05-01_16h03.44.863,test2_run,2024.1.4,None,2024-05-01 16h03.53.647816 -0400,
"(-4, 0)",p,0.0,1,16,40,22,0.2337642080092337,,0.07149524999840651,0.07160741700499784,941335,001,2024-05-01_16h03.44.863,test2_run,2024.1.4,None,2024-05-01 16h03.53.647816 -0400,
"(-3, -3)",g,"(-4, 0)",1,17,41,13,0.2337642080092337,,0.0717356670065783,0.07187179200991523,941335,001,2024-05-01_16h03.44.863,test2_run,2024.1.4,None,2024-05-01 16h03.53.647816 -0400,
"(-3, 3)",g,0.0,1,18,42,7,0.2337642080092337,,0.07200720800028648,0.07216954200703185,941335,001,2024-05-01_16h03.44.863,test2_run,2024.1.4,None,2024-05-01 16h03.53.647816 -0400,
"(-3, -3)",g,0.0,1,19,43,5,0.2337642080092337,,0.072305250010686,0.07243191701127216,941335,001,2024-05-01_16h03.44.863,test2_run,2024.1.4,None,2024-05-01 16h03.53.647816 -0400,
"(3, 3)",g,"(0, -4)",1,20,44,9,0.2337642080092337,,0.07256795800640248,0.07269675000861753,941335,001,2024-05-01_16h03.44.863,test2_run,2024.1.4,None,2024-05-01 16h03.53.647816 -0400,
"(4, 0)",g,"(0, 4)",1,21,45,10,0.2337642080092337,,0.07283095800084993,0.072959292010637,941335,001,2024-05-01_16h03.44.863,test2_run,2024.1.4,None,2024-05-01 16h03.53.647816 -0400,
"(0, -4)",p,0.0,1,22,46,20,0.2337642080092337,,0.07309358300699387,0.07326629200542811,941335,001,2024-05-01_16h03.44.863,test2_run,2024.1.4,None,2024-05-01 16h03.53.647816 -0400,
"(3, -3)",p,0.0,1,23,47,19,0.2337642080092337,,0.07339704201149289,0.07352525000169408,941335,001,2024-05-01_16h03.44.863,test2_run,2024.1.4,None,2024-05-01 16h03.53.647816 -0400,
"(3, 3)",p,0.0,2,0,48,17,0.2337642080092337,,0.07365770800970495,0.07379400001082104,941335,001,2024-05-01_16h03.44.863,test2_run,2024.1.4,None,2024-05-01 16h03.53.647816 -0400,
"(-4, 0)",p,0.0,2,1,49,22,0.2337642080092337,,0.0739259999973001,0.07405308300803881,941335,001,2024-05-01_16h03.44.863,test2_run,2024.1.4,None,2024-05-01 16h03.53.647816 -0400,
"(-3, 3)",p,0.0,2,2,50,23,0.2337642080092337,,0.07418912500725128,0.0743199580028886,941335,001,2024-05-01_16h03.44.863,test2_run,2024.1.4,None,2024-05-01 16h03.53.647816 -0400,
"(0, -4)",g,0.0,2,3,51,4,0.2337642080092337,,0.07445429200015496,0.0745822919998318,941335,001,2024-05-01_16h03.44.863,test2_run,2024.1.4,None,2024-05-01 16h03.53.647816 -0400,
"(0, 4)",g,0.0,2,4,52,0,0.2337642080092337,,0.07472050000797026,0.07485025000642054,941335,001,2024-05-01_16h03.44.863,test2_run,2024.1.4,None,2024-05-01 16h03.53.647816 -0400,
"(4, 0)",g,"(0, 4)",2,5,53,10,0.2337642080092337,,0.07498600000690203,0.07511474999773782,941335,001,2024-05-01_16h03.44.863,test2_run,2024.1.4,None,2024-05-01 16h03.53.647816 -0400,
"(4, 0)",p,0.0,2,6,54,18,0.2337642080092337,,0.07525112500297837,0.0753801250102697,941335,001,2024-05-01_16h03.44.863,test2_run,2024.1.4,None,2024-05-01 16h03.53.647816 -0400,
"(3, -3)",p,0.0,2,7,55,19,0.2337642080092337,,0.0755120420071762,0.07564075000118464,941335,001,2024-05-01_16h03.44.863,test2_run,2024.1.4,None,2024-05-01 16h03.53.647816 -0400,
"(0, 4)",g,"(-3, -3)",2,8,56,8,0.2337642080092337,,0.07577587501145899,0.0759044169972185,941335,001,2024-05-01_16h03.44.863,test2_run,2024.1.4,None,2024-05-01 16h03.53.647816 -0400,
"(3, 3)",g,0.0,2,9,57,1,0.2337642080092337,,0.07603629199729767,0.07616358299856074,941335,001,2024-05-01_16h03.44.863,test2_run,2024.1.4,None,2024-05-01 16h03.53.647816 -0400,
"(4, 0)",g,0.0,2,10,58,2,0.2337642080092337,,0.07629850000375882,0.07644775000517257,941335,001,2024-05-01_16h03.44.863,test2_run,2024.1.4,None,2024-05-01 16h03.53.647816 -0400,
"(-4, 0)",g,"(3, -3)",2,11,59,14,0.2337642080092337,,0.07658312500279862,0.07671200000913814,941335,001,2024-05-01_16h03.44.863,test2_run,2024.1.4,None,2024-05-01 16h03.53.647816 -0400,
"(0, 4)",p,0.0,2,12,60,16,0.2337642080092337,,0.07684579200576991,0.07697270800417755,941335,001,2024-05-01_16h03.44.863,test2_run,2024.1.4,None,2024-05-01 16h03.53.647816 -0400,
"(-4, 0)",g,0.0,2,13,61,6,0.2337642080092337,,0.0771044580033049,0.07723129200167023,941335,001,2024-05-01_16h03.44.863,test2_run,2024.1.4,None,2024-05-01 16h03.53.647816 -0400,
"(3, -3)",g,0.0,2,14,62,3,0.2337642080092337,,0.07736366700555664,0.07751637500768993,941335,001,2024-05-01_16h03.44.863,test2_run,2024.1.4,None,2024-05-01 16h03.53.647816 -0400,
"(0, -4)",p,0.0,2,15,63,20,0.2337642080092337,,0.07764970800781157,0.0777777080074884,941335,001,2024-05-01_16h03.44.863,test2_run,2024.1.4,None,2024-05-01 16h03.53.647816 -0400,
"(3, -3)",g,"(4, 0)",2,16,64,11,0.2337642080092337,,0.0779118750069756,0.07804087499971502,941335,001,2024-05-01_16h03.44.863,test2_run,2024.1.4,None,2024-05-01 16h03.53.647816 -0400,
"(3, 3)",g,"(0, -4)",2,17,65,9,0.2337642080092337,,0.07817225001053885,0.07830037501116749,941335,001,2024-05-01_16h03.44.863,test2_run,2024.1.4,None,2024-05-01 16h03.53.647816 -0400,
"(-3, 3)",g,"(3, 3)",2,18,66,15,0.2337642080092337,,0.07843170801061206,0.07858316700730938,941335,001,2024-05-01_16h03.44.863,test2_run,2024.1.4,None,2024-05-01 16h03.53.647816 -0400,
"(-3, -3)",g,"(-4, 0)",2,19,67,13,0.2337642080092337,,0.07871566699759569,0.07884229200135451,941335,001,2024-05-01_16h03.44.863,test2_run,2024.1.4,None,2024-05-01 16h03.53.647816 -0400,
"(0, -4)",g,"(-3, 3)",2,20,68,12,0.2337642080092337,,0.07897545800369699,0.07910295799956657,941335,001,2024-05-01_16h03.44.863,test2_run,2024.1.4,None,2024-05-01 16h03.53.647816 -0400,
"(-3, 3)",g,0.0,2,21,69,7,0.2337642080092337,,0.07923470799869392,0.07936166699801106,941335,001,2024-05-01_16h03.44.863,test2_run,2024.1.4,None,2024-05-01 16h03.53.647816 -0400,
"(-3, -3)",p,0.0,2,22,70,21,0.2337642080092337,,0.07949291700788308,0.07968033300130628,941335,001,2024-05-01_16h03.44.863,test2_run,2024.1.4,None,2024-05-01 16h03.53.647816 -0400,
"(-3, -3)",g,0.0,2,23,71,5,0.2337642080092337,,0.07981804200971965,0.0799463330040453,941335,001,2024-05-01_16h03.44.863,test2_run,2024.1.4,None,2024-05-01 16h03.53.647816 -0400,
"(-3, 3)",p,0.0,3,0,72,23,0.2337642080092337,,0.08008012500067707,0.08020762501109857,941335,001,2024-05-01_16h03.44.863,test2_run,2024.1.4,None,2024-05-01 16h03.53.647816 -0400,
"(-3, -3)",g,0.0,3,1,73,5,0.2337642080092337,,0.08034033300646115,0.08046895801089704,941335,001,2024-05-01_16h03.44.863,test2_run,2024.1.4,None,2024-05-01 16h03.53.647816 -0400,
"(-4, 0)",p,0.0,3,2,74,22,0.2337642080092337,,0.08060508299968205,0.08073425000475254,941335,001,2024-05-01_16h03.44.863,test2_run,2024.1.4,None,2024-05-01 16h03.53.647816 -0400,
"(-3, -3)",g,"(-4, 0)",3,3,75,13,0.2337642080092337,,0.08086637500673532,0.0809931670082733,941335,001,2024-05-01_16h03.44.863,test2_run,2024.1.4,None,2024-05-01 16h03.53.647816 -0400,
"(0, 4)",g,0.0,3,4,76,0,0.2337642080092337,,0.08112504200835247,0.08125170800485648,941335,001,2024-05-01_16h03.44.863,test2_run,2024.1.4,None,2024-05-01 16h03.53.647816 -0400,
"(0, 4)",g,"(-3, -3)",3,5,77,8,0.2337642080092337,,0.0813867079996271,0.08151291700778529,941335,001,2024-05-01_16h03.44.863,test2_run,2024.1.4,None,2024-05-01 16h03.53.647816 -0400,
"(0, -4)",g,"(-3, 3)",3,6,78,12,0.2337642080092337,,0.08164716701139696,0.08177783300925512,941335,001,2024-05-01_16h03.44.863,test2_run,2024.1.4,None,2024-05-01 16h03.53.647816 -0400,
"(3, 3)",g,0.0,3,7,79,1,0.2337642080092337,,0.0819099580112379,0.08203674999822397,941335,001,2024-05-01_16h03.44.863,test2_run,2024.1.4,None,2024-05-01 16h03.53.647816 -0400,
"(0, 4)",p,0.0,3,8,80,16,0.2337642080092337,,0.0821699579973938,0.08229737500369083,941335,001,2024-05-01_16h03.44.863,test2_run,2024.1.4,None,2024-05-01 16h03.53.647816 -0400,
"(-3, -3)",p,0.0,3,9,81,21,0.2337642080092337,,0.08243004200630821,0.08255833300063387,941335,001,2024-05-01_16h03.44.863,test2_run,2024.1.4,None,2024-05-01 16h03.53.647816 -0400,
"(4, 0)",g,0.0,3,10,82,2,0.2337642080092337,,0.08269054201082326,0.0828572080063168,941335,001,2024-05-01_16h03.44.863,test2_run,2024.1.4,None,2024-05-01 16h03.53.647816 -0400,
"(3, 3)",g,"(0, -4)",3,11,83,9,0.2337642080092337,,0.08299237499886658,0.0831242080021184,941335,001,2024-05-01_16h03.44.863,test2_run,2024.1.4,None,2024-05-01 16h03.53.647816 -0400,
"(0, -4)",p,0.0,3,12,84,20,0.2337642080092337,,0.08325995800259989,0.08339125000929926,941335,001,2024-05-01_16h03.44.863,test2_run,2024.1.4,None,2024-05-01 16h03.53.647816 -0400,
"(3, -3)",g,"(4, 0)",3,13,85,11,0.2337642080092337,,0.08352325001033023,0.08366033300990239,941335,001,2024-05-01_16h03.44.863,test2_run,2024.1.4,None,2024-05-01 16h03.53.647816 -0400,
"(3, 3)",p,0.0,3,14,86,17,0.2337642080092337,,0.08379508300276939,0.08391233300790191,941335,001,2024-05-01_16h03.44.863,test2_run,2024.1.4,None,2024-05-01 16h03.53.647816 -0400,
"(-3, 3)",g,"(3, 3)",3,15,87,15,0.2337642080092337,,0.0840422920009587,0.08417112501047086,941335,001,2024-05-01_16h03.44.863,test2_run,2024.1.4,None,2024-05-01 16h03.53.647816 -0400,
"(3, -3)",g,0.0,3,16,88,3,0.2337642080092337,,0.08430366699758451,0.08443145800265484,941335,001,2024-05-01_16h03.44.863,test2_run,2024.1.4,None,2024-05-01 16h03.53.647816 -0400,
"(-4, 0)",g,0.0,3,17,89,6,0.2337642080092337,,0.08456712499901187,0.08469404200150166,941335,001,2024-05-01_16h03.44.863,test2_run,2024.1.4,None,2024-05-01 16h03.53.647816 -0400,
"(0, -4)",g,0.0,3,18,90,4,0.2337642080092337,,0.0848262500076089,0.08499387500341982,941335,001,2024-05-01_16h03.44.863,test2_run,2024.1.4,None,2024-05-01 16h03.53.647816 -0400,
"(-3, 3)",g,0.0,3,19,91,7,0.2337642080092337,,0.08513308300462086,0.08527595800114796,941335,001,2024-05-01_16h03.44.863,test2_run,2024.1.4,None,2024-05-01 16h03.53.647816 -0400,
"(4, 0)",p,0.0,3,20,92,18,0.2337642080092337,,0.0854099170101108,0.08555095799965784,941335,001,2024-05-01_16h03.44.863,test2_run,2024.1.4,None,2024-05-01 16h03.53.647816 -0400,
"(4, 0)",g,"(0, 4)",3,21,93,10,0.2337642080092337,,0.085689250001451,0.08581862499704584,941335,001,2024-05-01_16h03.44.863,test2_run,2024.1.4,None,2024-05-01 16h03.53.647816 -0400,
"(3, -3)",p,0.0,3,22,94,19,0.2337642080092337,,0.08595575000799727,0.08610950000002049,941335,001,2024-05-01_16h03.44.863,test2_run,2024.1.4,None,2024-05-01 16h03.53.647816 -0400,
"(-4, 0)",g,"(3, -3)",3,23,95,14,0.2337642080092337,,0.0862413330032723,0.08637283300049603,941335,001,2024-05-01_16h03.44.863,test2_run,2024.1.4,None,2024-05-01 16h03.53.647816 -0400,
"(-3, 3)",g,0.0,4,0,96,7,0.2337642080092337,,0.08650608301104512,0.08664779200626072,941335,001,2024-05-01_16h03.44.863,test2_run,2024.1.4,None,2024-05-01 16h03.53.647816 -0400,
"(4, 0)",g,0.0,4,1,97,2,0.2337642080092337,,0.08678179200796876,0.08692429200164042,941335,001,2024-05-01_16h03.44.863,test2_run,2024.1.4,None,2024-05-01 16h03.53.647816 -0400,
"(0, 4)",p,0.0,4,2,98,16,0.2337642080092337,,0.08706454200728331,0.08724350000557024,941335,001,2024-05-01_16h03.44.863,test2_run,2024.1.4,None,2024-05-01 16h03.53.647816 -0400,
"(0, 4)",g,"(-3, -3)",4,3,99,8,0.2337642080092337,,0.08737629200913943,0.08750212501036003,941335,001,2024-05-01_16h03.44.863,test2_run,2024.1.4,None,2024-05-01 16h03.53.647816 -0400,
"(3, 3)",g,0.0,4,4,100,1,0.2337642080092337,,0.08763458300381899,0.08779975000652485,941335,001,2024-05-01_16h03.44.863,test2_run,2024.1.4,None,2024-05-01 16h03.53.647816 -0400,
"(-4, 0)",p,0.0,4,5,101,22,0.2337642080092337,,0.08793249999871477,0.08813054200436454,941335,001,2024-05-01_16h03.44.863,test2_run,2024.1.4,None,2024-05-01 16h03.53.647816 -0400,
"(3, 3)",g,"(0, -4)",4,6,102,9,0.2337642080092337,,0.08826741699886043,0.08842666700365953,941335,001,2024-05-01_16h03.44.863,test2_run,2024.1.4,None,2024-05-01 16h03.53.647816 -0400,
"(0, -4)",p,0.0,4,7,103,20,0.2337642080092337,,0.08856129201012664,0.08872500000870787,941335,001,2024-05-01_16h03.44.863,test2_run,2024.1.4,None,2024-05-01 16h03.53.647816 -0400,
"(-3, -3)",g,"(-4, 0)",4,8,104,13,0.2337642080092337,,0.08886358300514985,0.08903391700005159,941335,001,2024-05-01_16h03.44.863,test2_run,2024.1.4,None,2024-05-01 16h03.53.647816 -0400,
"(3, 3)",p,0.0,4,9,105,17,0.2337642080092337,,0.08917104201100301,0.08932675000687595,941335,001,2024-05-01_16h03.44.863,test2_run,2024.1.4,None,2024-05-01 16h03.53.647816 -0400,
"(3, -3)",g,0.0,4,10,106,3,0.2337642080092337,,0.0894596250000177,0.08960500000102911,941335,001,2024-05-01_16h03.44.863,test2_run,2024.1.4,None,2024-05-01 16h03.53.647816 -0400,
"(0, -4)",g,"(-3, 3)",4,11,107,12,0.2337642080092337,,0.08974691700132098,0.08990883300430141,941335,001,2024-05-01_16h03.44.863,test2_run,2024.1.4,None,2024-05-01 16h03.53.647816 -0400,
"(0, 4)",g,0.0,4,12,108,0,0.2337642080092337,,0.09004166700469796,0.0902271670056507,941335,001,2024-05-01_16h03.44.863,test2_run,2024.1.4,None,2024-05-01 16h03.53.647816 -0400,
"(-3, 3)",p,0.0,4,13,109,23,0.2337642080092337,,0.0903572079987498,0.09052320801129099,941335,001,2024-05-01_16h03.44.863,test2_run,2024.1.4,None,2024-05-01 16h03.53.647816 -0400,
"(4, 0)",p,0.0,4,14,110,18,0.2337642080092337,,0.09066062500642147,0.09082150000904221,941335,001,2024-05-01_16h03.44.863,test2_run,2024.1.4,None,2024-05-01 16h03.53.647816 -0400,
"(0, -4)",g,0.0,4,15,111,4,0.2337642080092337,,0.09095470800821204,0.09110900000086986,941335,001,2024-05-01_16h03.44.863,test2_run,2024.1.4,None,2024-05-01 16h03.53.647816 -0400,
"(-3, 3)",g,"(3, 3)",4,16,112,15,0.2337642080092337,,0.0912499999976717,0.09140745800687,941335,001,2024-05-01_16h03.44.863,test2_run,2024.1.4,None,2024-05-01 16h03.53.647816 -0400,
"(3, -3)",g,"(4, 0)",4,17,113,11,0.2337642080092337,,0.09153950000472832,0.09169916700921021,941335,001,2024-05-01_16h03.44.863,test2_run,2024.1.4,None,2024-05-01 16h03.53.647816 -0400,
"(4, 0)",g,"(0, 4)",4,18,114,10,0.2337642080092337,,0.09183195800869726,0.0919894170074258,941335,001,2024-05-01_16h03.44.863,test2_run,2024.1.4,None,2024-05-01 16h03.53.647816 -0400,
"(3, -3)",p,0.0,4,19,115,19,0.2337642080092337,,0.09212479200505186,0.09231400000862777,941335,001,2024-05-01_16h03.44.863,test2_run,2024.1.4,None,2024-05-01 16h03.53.647816 -0400,
"(-4, 0)",g,0.0,4,20,116,6,0.2337642080092337,,0.09245370799908414,0.09261966700432822,941335,001,2024-05-01_16h03.44.863,test2_run,2024.1.4,None,2024-05-01 16h03.53.647816 -0400,
"(-3, -3)",p,0.0,4,21,117,21,0.2337642080092337,,0.09275670800707303,0.09292137500597164,941335,001,2024-05-01_16h03.44.863,test2_run,2024.1.4,None,2024-05-01 16h03.53.647816 -0400,
"(-4, 0)",g,"(3, -3)",4,22,118,14,0.2337642080092337,,0.09305429201049265,0.09321425000962336,941335,001,2024-05-01_16h03.44.863,test2_run,2024.1.4,None,2024-05-01 16h03.53.647816 -0400,
"(-3, -3)",g,0.0,4,23,119,5,0.2337642080092337,,0.09335420800198335,0.09353441699931864,941335,001,2024-05-01_16h03.44.863,test2_run,2024.1.4,None,2024-05-01 16h03.53.647816 -0400,
"(0, 4)",g,"(-3, -3)",5,0,120,8,0.2337642080092337,,0.09366491700347979,0.09382887500396464,941335,001,2024-05-01_16h03.44.863,test2_run,2024.1.4,None,2024-05-01 16h03.53.647816 -0400,
"(3, 3)",p,0.0,5,1,121,17,0.2337642080092337,,0.09396166700753383,0.09412691699981224,941335,001,2024-05-01_16h03.44.863,test2_run,2024.1.4,None,2024-05-01 16h03.53.647816 -0400,
"(-3, 3)",p,0.0,5,2,122,23,0.2337642080092337,,0.09425866699893959,0.09447254199767485,941335,001,2024-05-01_16h03.44.863,test2_run,2024.1.4,None,2024-05-01 16h03.53.647816 -0400,
"(-4, 0)",p,0.0,5,3,123,22,0.2337642080092337,,0.0946439580002334,0.09480700000131037,941335,001,2024-05-01_16h03.44.863,test2_run,2024.1.4,None,2024-05-01 16h03.53.647816 -0400,
"(-4, 0)",g,0.0,5,4,124,6,0.2337642080092337,,0.09494120800809469,0.09510433299874421,941335,001,2024-05-01_16h03.44.863,test2_run,2024.1.4,None,2024-05-01 16h03.53.647816 -0400,
"(4, 0)",p,0.0,5,5,125,18,0.2337642080092337,,0.0952399170055287,0.09541133300808724,941335,001,2024-05-01_16h03.44.863,test2_run,2024.1.4,None,2024-05-01 16h03.53.647816 -0400,
"(0, 4)",p,0.0,5,6,126,16,0.2337642080092337,,0.09555487500620075,0.0957206250022864,941335,001,2024-05-01_16h03.44.863,test2_run,2024.1.4,None,2024-05-01 16h03.53.647816 -0400,
"(-3, -3)",g,"(-4, 0)",5,7,127,13,0.2337642080092337,,0.09585833300661761,0.09602045800420456,941335,001,2024-05-01_16h03.44.863,test2_run,2024.1.4,None,2024-05-01 16h03.53.647816 -0400,
"(4, 0)",g,0.0,5,8,128,2,0.2337642080092337,,0.09615450000273995,0.09631887500290759,941335,001,2024-05-01_16h03.44.863,test2_run,2024.1.4,None,2024-05-01 16h03.53.647816 -0400,
"(-3, 3)",g,"(3, 3)",5,9,129,15,0.2337642080092337,,0.09645974999875762,0.09662341700459365,941335,001,2024-05-01_16h03.44.863,test2_run,2024.1.4,None,2024-05-01 16h03.53.647816 -0400,
"(-4, 0)",g,"(3, -3)",5,10,130,14,0.2337642080092337,,0.09675650000281166,0.09692162500869017,941335,001,2024-05-01_16h03.44.863,test2_run,2024.1.4,None,2024-05-01 16h03.53.647816 -0400,
"(4, 0)",g,"(0, 4)",5,11,131,10,0.2337642080092337,,0.09705391700845212,0.09721808299946133,941335,001,2024-05-01_16h03.44.863,test2_run,2024.1.4,None,2024-05-01 16h03.53.647816 -0400,
"(3, -3)",g,"(4, 0)",5,12,132,11,0.2337642080092337,,0.09735041701060254,0.09754641700419597,941335,001,2024-05-01_16h03.44.863,test2_run,2024.1.4,None,2024-05-01 16h03.53.647816 -0400,
"(-3, 3)",g,0.0,5,13,133,7,0.2337642080092337,,0.09768575000634883,0.09785062501032371,941335,001,2024-05-01_16h03.44.863,test2_run,2024.1.4,None,2024-05-01 16h03.53.647816 -0400,
"(0, -4)",g,0.0,5,14,134,4,0.2337642080092337,,0.09798887500073761,0.09815304201038089,941335,001,2024-05-01_16h03.44.863,test2_run,2024.1.4,None,2024-05-01 16h03.53.647816 -0400,
"(3, -3)",p,0.0,5,15,135,19,0.2337642080092337,,0.09828591700352263,0.09842566700535826,941335,001,2024-05-01_16h03.44.863,test2_run,2024.1.4,None,2024-05-01 16h03.53.647816 -0400,
"(3, -3)",g,0.0,5,16,136,3,0.2337642080092337,,0.09856737501104362,0.09873450000304729,941335,001,2024-05-01_16h03.44.863,test2_run,2024.1.4,None,2024-05-01 16h03.53.647816 -0400,
"(0, -4)",g,"(-3, 3)",5,17,137,12,0.2337642080092337,,0.09886708299745806,0.09903529200528283,941335,001,2024-05-01_16h03.44.863,test2_run,2024.1.4,None,2024-05-01 16h03.53.647816 -0400,
"(-3, -3)",p,0.0,5,18,138,21,0.2337642080092337,,0.09916820800572168,0.09932391700567678,941335,001,2024-05-01_16h03.44.863,test2_run,2024.1.4,None,2024-05-01 16h03.53.647816 -0400,
"(3, 3)",g,"(0, -4)",5,19,139,9,0.2337642080092337,,0.09945575000892859,0.09964616700017359,941335,001,2024-05-01_16h03.44.863,test2_run,2024.1.4,None,2024-05-01 16h03.53.647816 -0400,
"(3, 3)",g,0.0,5,20,140,1,0.2337642080092337,,0.09978429200418759,0.09995075000915676,941335,001,2024-05-01_16h03.44.863,test2_run,2024.1.4,None,2024-05-01 16h03.53.647816 -0400,
"(-3, -3)",g,0.0,5,21,141,5,0.2337642080092337,,0.10008404200198129,0.10024670801067259,941335,001,2024-05-01_16h03.44.863,test2_run,2024.1.4,None,2024-05-01 16h03.53.647816 -0400,
"(0, 4)",g,0.0,5,22,142,0,0.2337642080092337,,0.10038045801047701,0.10053987499850336,941335,001,2024-05-01_16h03.44.863,test2_run,2024.1.4,None,2024-05-01 16h03.53.647816 -0400,
"(0, -4)",p,0.0,5,23,143,20,0.2337642080092337,,0.10068020800827071,0.10082912500365637,941335,001,2024-05-01_16h03.44.863,test2_run,2024.1.4,None,2024-05-01 16h03.53.647816 -0400,
"(-4, 0)",g,0.0,6,0,144,6,0.2337642080092337,,0.1009623330028262,0.10112941700208467,941335,001,2024-05-01_16h03.44.863,test2_run,2024.1.4,None,2024-05-01 16h03.53.647816 -0400,
"(-3, 3)",p,0.0,6,1,145,23,0.2337642080092337,,0.10126237499935087,0.10142304201144725,941335,001,2024-05-01_16h03.44.863,test2_run,2024.1.4,None,2024-05-01 16h03.53.647816 -0400,
"(-3, -3)",g,0.0,6,2,146,5,0.2337642080092337,,0.10155520800617523,0.10177195799769834,941335,001,2024-05-01_16h03.44.863,test2_run,2024.1.4,None,2024-05-01 16h03.53.647816 -0400,
"(3, -3)",p,0.0,6,3,147,19,0.2337642080092337,,0.10191704200406093,0.10208612499991432,941335,001,2024-05-01_16h03.44.863,test2_run,2024.1.4,None,2024-05-01 16h03.53.647816 -0400,
"(-3, 3)",g,"(3, 3)",6,4,148,15,0.2337642080092337,,0.10222333300043829,0.10240766700007953,941335,001,2024-05-01_16h03.44.863,test2_run,2024.1.4,None,2024-05-01 16h03.53.647816 -0400,
"(-3, -3)",g,"(-4, 0)",6,5,149,13,0.2337642080092337,,0.10255645800498314,0.1027574170002481,941335,001,2024-05-01_16h03.44.863,test2_run,2024.1.4,None,2024-05-01 16h03.53.647816 -0400,
"(0, 4)",p,0.0,6,6,150,16,0.2337642080092337,,0.10290949999762233,0.10308145800081547,941335,001,2024-05-01_16h03.44.863,test2_run,2024.1.4,None,2024-05-01 16h03.53.647816 -0400,
"(4, 0)",p,0.0,6,7,151,18,0.2337642080092337,,0.10321654200379271,0.10336416700738482,941335,001,2024-05-01_16h03.44.863,test2_run,2024.1.4,None,2024-05-01 16h03.53.647816 -0400,
"(0, -4)",g,"(-3, 3)",6,8,152,12,0.2337642080092337,,0.10349879199930001,0.10366008299752139,941335,001,2024-05-01_16h03.44.863,test2_run,2024.1.4,None,2024-05-01 16h03.53.647816 -0400,
"(3, 3)",p,0.0,6,9,153,17,0.2337642080092337,,0.10382245801156387,0.10398087500652764,941335,001,2024-05-01_16h03.44.863,test2_run,2024.1.4,None,2024-05-01 16h03.53.647816 -0400,
"(0, -4)",p,0.0,6,10,154,20,0.2337642080092337,,0.10412487499706913,0.1043018330092309,941335,001,2024-05-01_16h03.44.863,test2_run,2024.1.4,None,2024-05-01 16h03.53.647816 -0400,
"(3, -3)",g,0.0,6,11,155,3,0.2337642080092337,,0.10443429200677201,0.10459870799968485,941335,001,2024-05-01_16h03.44.863,test2_run,2024.1.4,None,2024-05-01 16h03.53.647816 -0400,
"(4, 0)",g,"(0, 4)",6,12,156,10,0.2337642080092337,,0.1047309999994468,0.10493545800272841,941335,001,2024-05-01_16h03.44.863,test2_run,2024.1.4,None,2024-05-01 16h03.53.647816 -0400,
"(-4, 0)",g,"(3, -3)",6,13,157,14,0.2337642080092337,,0.1050712080032099,0.10522129200398922,941335,001,2024-05-01_16h03.44.863,test2_run,2024.1.4,None,2024-05-01 16h03.53.647816 -0400,
"(-3, 3)",g,0.0,6,14,158,7,0.2337642080092337,,0.10535387499839999,0.10551875000237487,941335,001,2024-05-01_16h03.44.863,test2_run,2024.1.4,None,2024-05-01 16h03.53.647816 -0400,
"(-4, 0)",p,0.0,6,15,159,22,0.2337642080092337,,0.10565175001102034,0.10581183301110286,941335,001,2024-05-01_16h03.44.863,test2_run,2024.1.4,None,2024-05-01 16h03.53.647816 -0400,
"(0, -4)",g,0.0,6,16,160,4,0.2337642080092337,,0.10595162500976585,0.10611212500953116,941335,001,2024-05-01_16h03.44.863,test2_run,2024.1.4,None,2024-05-01 16h03.53.647816 -0400,
"(4, 0)",g,0.0,6,17,161,2,0.2337642080092337,,0.10624562500743195,0.1064084170066053,941335,001,2024-05-01_16h03.44.863,test2_run,2024.1.4,None,2024-05-01 16h03.53.647816 -0400,
"(3, 3)",g,"(0, -4)",6,18,162,9,0.2337642080092337,,0.10654091701144353,0.10670370800653473,941335,001,2024-05-01_16h03.44.863,test2_run,2024.1.4,None,2024-05-01 16h03.53.647816 -0400,
"(3, 3)",g,0.0,6,19,163,1,0.2337642080092337,,0.10683566700026859,0.1070442920026835,941335,001,2024-05-01_16h03.44.863,test2_run,2024.1.4,None,2024-05-01 16h03.53.647816 -0400,
"(0, 4)",g,0.0,6,20,164,0,0.2337642080092337,,0.10718087499844842,0.10733033300493844,941335,001,2024-05-01_16h03.44.863,test2_run,2024.1.4,None,2024-05-01 16h03.53.647816 -0400,
"(0, 4)",g,"(-3, -3)",6,21,165,8,0.2337642080092337,,0.10746883299725596,0.10761370800901204,941335,001,2024-05-01_16h03.44.863,test2_run,2024.1.4,None,2024-05-01 16h03.53.647816 -0400,
"(3, -3)",g,"(4, 0)",6,22,166,11,0.2337642080092337,,0.10774600000877399,0.10789204201137181,941335,001,2024-05-01_16h03.44.863,test2_run,2024.1.4,None,2024-05-01 16h03.53.647816 -0400,
"(-3, -3)",p,0.0,6,23,167,21,0.2337642080092337,,0.10803458299778868,0.10821566700178664,941335,001,2024-05-01_16h03.44.863,test2_run,2024.1.4,None,2024-05-01 16h03.53.647816 -0400,
"(3, 3)",p,0.0,7,0,168,17,0.2337642080092337,,0.10834891699778382,0.10850462500820868,941335,001,2024-05-01_16h03.44.863,test2_run,2024.1.4,None,2024-05-01 16h03.53.647816 -0400,
"(0, -4)",p,0.0,7,1,169,20,0.2337642080092337,,0.10863695800071582,0.10880545800318941,941335,001,2024-05-01_16h03.44.863,test2_run,2024.1.4,None,2024-05-01 16h03.53.647816 -0400,
"(-4, 0)",p,0.0,7,2,170,22,0.2337642080092337,,0.1089371249981923,0.10913791701023001,941335,001,2024-05-01_16h03.44.863,test2_run,2024.1.4,None,2024-05-01 16h03.53.647816 -0400,
"(3, -3)",p,0.0,7,3,171,19,0.2337642080092337,,0.1092742500040913,0.10943425000004936,941335,001,2024-05-01_16h03.44.863,test2_run,2024.1.4,None,2024-05-01 16h03.53.647816 -0400,
"(4, 0)",g,0.0,7,4,172,2,0.2337642080092337,,0.10956816699763294,0.1097232920001261,941335,001,2024-05-01_16h03.44.863,test2_run,2024.1.4,None,2024-05-01 16h03.53.647816 -0400,
"(4, 0)",p,0.0,7,5,173,18,0.2337642080092337,,0.10985912500473205,0.11002341700077523,941335,001,2024-05-01_16h03.44.863,test2_run,2024.1.4,None,2024-05-01 16h03.53.647816 -0400,
"(4, 0)",g,"(0, 4)",7,6,174,10,0.2337642080092337,,0.11016666700015776,0.11033091699937358,941335,001,2024-05-01_16h03.44.863,test2_run,2024.1.4,None,2024-05-01 16h03.53.647816 -0400,
"(3, 3)",g,"(0, -4)",7,7,175,9,0.2337642080092337,,0.11046370799886063,0.11062512500211596,941335,001,2024-05-01_16h03.44.863,test2_run,2024.1.4,None,2024-05-01 16h03.53.647816 -0400,
"(-3, -3)",p,0.0,7,8,176,21,0.2337642080092337,,0.11075979200541042,0.11090737499762326,941335,001,2024-05-01_16h03.44.863,test2_run,2024.1.4,None,2024-05-01 16h03.53.647816 -0400,
"(0, -4)",g,"(-3, 3)",7,9,177,12,0.2337642080092337,,0.11105316699831747,0.11124758300138637,941335,001,2024-05-01_16h03.44.863,test2_run,2024.1.4,None,2024-05-01 16h03.53.647816 -0400,
"(-3, -3)",g,"(-4, 0)",7,10,178,13,0.2337642080092337,,0.11138329200912267,0.11153616700903513,941335,001,2024-05-01_16h03.44.863,test2_run,2024.1.4,None,2024-05-01 16h03.53.647816 -0400,
"(-4, 0)",g,0.0,7,11,179,6,0.2337642080092337,,0.11167383300198708,0.11183470800460782,941335,001,2024-05-01_16h03.44.863,test2_run,2024.1.4,None,2024-05-01 16h03.53.647816 -0400,
"(0, 4)",g,0.0,7,12,180,0,0.2337642080092337,,0.11196799999743234,0.11212429200531915,941335,001,2024-05-01_16h03.44.863,test2_run,2024.1.4,None,2024-05-01 16h03.53.647816 -0400,
"(0, 4)",p,0.0,7,13,181,16,0.2337642080092337,,0.11226754200470168,0.11243129200011026,941335,001,2024-05-01_16h03.44.863,test2_run,2024.1.4,None,2024-05-01 16h03.53.647816 -0400,
"(3, -3)",g,0.0,7,14,182,3,0.2337642080092337,,0.11256354200304486,0.1127267920091981,941335,001,2024-05-01_16h03.44.863,test2_run,2024.1.4,None,2024-05-01 16h03.53.647816 -0400,
"(-3, -3)",g,0.0,7,15,183,5,0.2337642080092337,,0.1128591669985326,0.11302129201067146,941335,001,2024-05-01_16h03.44.863,test2_run,2024.1.4,None,2024-05-01 16h03.53.647816 -0400,
"(-3, 3)",g,"(3, 3)",7,16,184,15,0.2337642080092337,,0.11315350000222679,0.11336429200309794,941335,001,2024-05-01_16h03.44.863,test2_run,2024.1.4,None,2024-05-01 16h03.53.647816 -0400,
"(-4, 0)",g,"(3, -3)",7,17,185,14,0.2337642080092337,,0.11350020799727645,0.11367125000106171,941335,001,2024-05-01_16h03.44.863,test2_run,2024.1.4,None,2024-05-01 16h03.53.647816 -0400,
"(0, 4)",g,"(-3, -3)",7,18,186,8,0.2337642080092337,,0.11380379200272728,0.11396920800325461,941335,001,2024-05-01_16h03.44.863,test2_run,2024.1.4,None,2024-05-01 16h03.53.647816 -0400,
"(3, 3)",g,0.0,7,19,187,1,0.2337642080092337,,0.11410474999865983,0.11424912500660866,941335,001,2024-05-01_16h03.44.863,test2_run,2024.1.4,None,2024-05-01 16h03.53.647816 -0400,
"(0, -4)",g,0.0,7,20,188,4,0.2337642080092337,,0.11438708299829159,0.11454049999883864,941335,001,2024-05-01_16h03.44.863,test2_run,2024.1.4,None,2024-05-01 16h03.53.647816 -0400,
"(-3, 3)",g,0.0,7,21,189,7,0.2337642080092337,,0.11467362500843592,0.11482975000399165,941335,001,2024-05-01_16h03.44.863,test2_run,2024.1.4,None,2024-05-01 16h03.53.647816 -0400,
"(3, -3)",g,"(4, 0)",7,22,190,11,0.2337642080092337,,0.11496183300914709,0.11512391699943691,941335,001,2024-05-01_16h03.44.863,test2_run,2024.1.4,None,2024-05-01 16h03.53.647816 -0400,
"(-3, 3)",p,0.0,7,23,191,23,0.2337642080092337,,0.11525591700046789,0.11544983299972955,941335,001,2024-05-01_16h03.44.863,test2_run,2024.1.4,None,2024-05-01 16h03.53.647816 -0400,
"(-3, 3)",g,"(3, 3)",8,0,192,15,0.2337642080092337,,0.11558666700148024,0.11573937500361353,941335,001,2024-05-01_16h03.44.863,test2_run,2024.1.4,None,2024-05-01 16h03.53.647816 -0400,
"(0, 4)",g,0.0,8,1,193,0,0.2337642080092337,,0.1158729580056388,0.11602241700165905,941335,001,2024-05-01_16h03.44.863,test2_run,2024.1.4,None,2024-05-01 16h03.53.647816 -0400,
"(3, -3)",p,0.0,8,2,194,19,0.2337642080092337,,0.11615437500586268,0.11630429200886283,941335,001,2024-05-01_16h03.44.863,test2_run,2024.1.4,None,2024-05-01 16h03.53.647816 -0400,
"(-3, -3)",g,"(-4, 0)",8,3,195,13,0.2337642080092337,,0.11644512500788551,0.11659604200394824,941335,001,2024-05-01_16h03.44.863,test2_run,2024.1.4,None,2024-05-01 16h03.53.647816 -0400,
"(-4, 0)",g,0.0,8,4,196,6,0.2337642080092337,,0.11672820799867623,0.11687529200571589,941335,001,2024-05-01_16h03.44.863,test2_run,2024.1.4,None,2024-05-01 16h03.53.647816 -0400,
"(0, -4)",g,0.0,8,5,197,4,0.2337642080092337,,0.11700741700769868,0.11715770800947212,941335,001,2024-05-01_16h03.44.863,test2_run,2024.1.4,None,2024-05-01 16h03.53.647816 -0400,
"(0, -4)",p,0.0,8,6,198,20,0.2337642080092337,,0.11729000000923406,0.11744991700106766,941335,001,2024-05-01_16h03.44.863,test2_run,2024.1.4,None,2024-05-01 16h03.53.647816 -0400,
"(4, 0)",g,"(0, 4)",8,7,199,10,0.2337642080092337,,0.11758854200888891,0.11773216701112688,941335,001,2024-05-01_16h03.44.863,test2_run,2024.1.4,None,2024-05-01 16h03.53.647816 -0400,
"(-4, 0)",g,"(3, -3)",8,8,200,14,0.2337642080092337,,0.11786762499832548,0.11800691700773314,941335,001,2024-05-01_16h03.44.863,test2_run,2024.1.4,None,2024-05-01 16h03.53.647816 -0400,
"(0, -4)",g,"(-3, 3)",8,9,201,12,0.2337642080092337,,0.11814054200658575,0.11828020800021477,941335,001,2024-05-01_16h03.44.863,test2_run,2024.1.4,None,2024-05-01 16h03.53.647816 -0400,
"(0, 4)",p,0.0,8,10,202,16,0.2337642080092337,,0.11841345801076386,0.11858395799936261,941335,001,2024-05-01_16h03.44.863,test2_run,2024.1.4,None,2024-05-01 16h03.53.647816 -0400,
"(-4, 0)",p,0.0,8,11,203,22,0.2337642080092337,,0.11871983300079592,0.11885858300956897,941335,001,2024-05-01_16h03.44.863,test2_run,2024.1.4,None,2024-05-01 16h03.53.647816 -0400,
"(-3, -3)",g,0.0,8,12,204,5,0.2337642080092337,,0.11899158300366253,0.11913441700744443,941335,001,2024-05-01_16h03.44.863,test2_run,2024.1.4,None,2024-05-01 16h03.53.647816 -0400,
"(3, -3)",g,0.0,8,13,205,3,0.2337642080092337,,0.11926662499899976,0.11940016700827982,941335,001,2024-05-01_16h03.44.863,test2_run,2024.1.4,None,2024-05-01 16h03.53.647816 -0400,
"(-3, -3)",p,0.0,8,14,206,21,0.2337642080092337,,0.11953645800531376,0.11967591699794866,941335,001,2024-05-01_16h03.44.863,test2_run,2024.1.4,None,2024-05-01 16h03.53.647816 -0400,
"(-3, 3)",g,0.0,8,15,207,7,0.2337642080092337,,0.11981308300164528,0.1199502920062514,941335,001,2024-05-01_16h03.44.863,test2_run,2024.1.4,None,2024-05-01 16h03.53.647816 -0400,
"(4, 0)",p,0.0,8,16,208,18,0.2337642080092337,,0.12008229200728238,0.12021887500304729,941335,001,2024-05-01_16h03.44.863,test2_run,2024.1.4,None,2024-05-01 16h03.53.647816 -0400,
"(4, 0)",g,0.0,8,17,209,2,0.2337642080092337,,0.12035229201137554,0.12048804199730512,941335,001,2024-05-01_16h03.44.863,test2_run,2024.1.4,None,2024-05-01 16h03.53.647816 -0400,
"(3, 3)",g,0.0,8,18,210,1,0.2337642080092337,,0.12062924999918323,0.12076920800609514,941335,001,2024-05-01_16h03.44.863,test2_run,2024.1.4,None,2024-05-01 16h03.53.647816 -0400,
"(3, 3)",g,"(0, -4)",8,19,211,9,0.2337642080092337,,0.12089912500232458,0.12103670800570399,941335,001,2024-05-01_16h03.44.863,test2_run,2024.1.4,None,2024-05-01 16h03.53.647816 -0400,
"(3, 3)",p,0.0,8,20,212,17,0.2337642080092337,,0.12116933301149402,0.1213008750055451,941335,001,2024-05-01_16h03.44.863,test2_run,2024.1.4,None,2024-05-01 16h03.53.647816 -0400,
"(-3, 3)",p,0.0,8,21,213,23,0.2337642080092337,,0.12143366700911429,0.12156200000026729,941335,001,2024-05-01_16h03.44.863,test2_run,2024.1.4,None,2024-05-01 16h03.53.647816 -0400,
"(3, -3)",g,"(4, 0)",8,22,214,11,0.2337642080092337,,0.12169983300555032,0.12184191700362135,941335,001,2024-05-01_16h03.44.863,test2_run,2024.1.4,None,2024-05-01 16h03.53.647816 -0400,
"(0, 4)",g,"(-3, -3)",8,23,215,8,0.2337642080092337,,0.12197129199921619,0.12210375000722706,941335,001,2024-05-01_16h03.44.863,test2_run,2024.1.4,None,2024-05-01 16h03.53.647816 -0400,
"(3, -3)",g,0.0,9,0,216,3,0.2337642080092337,,0.12223720800830051,0.12236441700952128,941335,001,2024-05-01_16h03.44.863,test2_run,2024.1.4,None,2024-05-01 16h03.53.647816 -0400,
"(3, -3)",p,0.0,9,1,217,19,0.2337642080092337,,0.1224998750112718,0.12262458300392609,941335,001,2024-05-01_16h03.44.863,test2_run,2024.1.4,None,2024-05-01 16h03.53.647816 -0400,
"(-4, 0)",g,0.0,9,2,218,6,0.2337642080092337,,0.12276233300508466,0.12291416700463742,941335,001,2024-05-01_16h03.44.863,test2_run,2024.1.4,None,2024-05-01 16h03.53.647816 -0400,
"(-3, 3)",g,0.0,9,3,219,7,0.2337642080092337,,0.1230462920066202,0.12323491700226441,941335,001,2024-05-01_16h03.44.863,test2_run,2024.1.4,None,2024-05-01 16h03.53.647816 -0400,
"(3, -3)",g,"(4, 0)",9,4,220,11,0.2337642080092337,,0.12337358300283086,0.12355958300759085,941335,001,2024-05-01_16h03.44.863,test2_run,2024.1.4,None,2024-05-01 16h03.53.647816 -0400,
"(-4, 0)",p,0.0,9,5,221,22,0.2337642080092337,,0.12369833300181199,0.12391333300911356,941335,001,2024-05-01_16h03.44.863,test2_run,2024.1.4,None,2024-05-01 16h03.53.647816 -0400,
"(0, -4)",g,0.0,9,6,222,4,0.2337642080092337,,0.12404908300959505,0.12423895800020546,941335,001,2024-05-01_16h03.44.863,test2_run,2024.1.4,None,2024-05-01 16h03.53.647816 -0400,
"(-3, 3)",g,"(3, 3)",9,7,223,15,0.2337642080092337,,0.12438308300625067,0.12456170799850952,941335,001,2024-05-01_16h03.44.863,test2_run,2024.1.4,None,2024-05-01 16h03.53.647816 -0400,
"(4, 0)",g,"(0, 4)",9,8,224,10,0.2337642080092337,,0.12469820800470188,0.12487837500520982,941335,001,2024-05-01_16h03.44.863,test2_run,2024.1.4,None,2024-05-01 16h03.53.647816 -0400,
"(-3, -3)",g,0.0,9,9,225,5,0.2337642080092337,,0.1250198750058189,0.12516170799790416,941335,001,2024-05-01_16h03.44.863,test2_run,2024.1.4,None,2024-05-01 16h03.53.647816 -0400,
"(0, -4)",g,"(-3, 3)",9,10,226,12,0.2337642080092337,,0.12529595800151583,0.12544033300946467,941335,001,2024-05-01_16h03.44.863,test2_run,2024.1.4,None,2024-05-01 16h03.53.647816 -0400,
"(-3, 3)",p,0.0,9,11,227,23,0.2337642080092337,,0.1255740830092691,0.1257299580029212,941335,001,2024-05-01_16h03.44.863,test2_run,2024.1.4,None,2024-05-01 16h03.53.647816 -0400,
"(-3, -3)",g,"(-4, 0)",9,12,228,13,0.2337642080092337,,0.12586854200344533,0.12600958300754428,941335,001,2024-05-01_16h03.44.863,test2_run,2024.1.4,None,2024-05-01 16h03.53.647816 -0400,
"(0, 4)",p,0.0,9,13,229,16,0.2337642080092337,,0.12614800001028925,0.12628658300673123,941335,001,2024-05-01_16h03.44.863,test2_run,2024.1.4,None,2024-05-01 16h03.53.647816 -0400,
"(3, 3)",g,"(0, -4)",9,14,230,9,0.2337642080092337,,0.1264243330078898,0.12656804200378247,941335,001,2024-05-01_16h03.44.863,test2_run,2024.1.4,None,2024-05-01 16h03.53.647816 -0400,
"(3, 3)",p,0.0,9,15,231,17,0.2337642080092337,,0.12670129199977964,0.12682645799941383,941335,001,2024-05-01_16h03.44.863,test2_run,2024.1.4,None,2024-05-01 16h03.53.647816 -0400,
"(-3, -3)",p,0.0,9,16,232,21,0.2337642080092337,,0.12696687500283588,0.12709483300568536,941335,001,2024-05-01_16h03.44.863,test2_run,2024.1.4,None,2024-05-01 16h03.53.647816 -0400,
"(4, 0)",p,0.0,9,17,233,18,0.2337642080092337,,0.12725254200631753,0.12743237501126714,941335,001,2024-05-01_16h03.44.863,test2_run,2024.1.4,None,2024-05-01 16h03.53.647816 -0400,
"(0, -4)",p,0.0,9,18,234,20,0.2337642080092337,,0.12756566700409167,0.12768295800196938,941335,001,2024-05-01_16h03.44.863,test2_run,2024.1.4,None,2024-05-01 16h03.53.647816 -0400,
"(0, 4)",g,"(-3, -3)",9,19,235,8,0.2337642080092337,,0.12781629200617317,0.12795799999730662,941335,001,2024-05-01_16h03.44.863,test2_run,2024.1.4,None,2024-05-01 16h03.53.647816 -0400,
"(0, 4)",g,0.0,9,20,236,0,0.2337642080092337,,0.1281024170020828,0.12822620800579898,941335,001,2024-05-01_16h03.44.863,test2_run,2024.1.4,None,2024-05-01 16h03.53.647816 -0400,
"(-4, 0)",g,"(3, -3)",9,21,237,14,0.2337642080092337,,0.12836237500596326,0.12848008300352376,941335,001,2024-05-01_16h03.44.863,test2_run,2024.1.4,None,2024-05-01 16h03.53.647816 -0400,
"(4, 0)",g,0.0,9,22,238,2,0.2337642080092337,,0.12861433300713543,0.1287292500055628,941335,001,2024-05-01_16h03.44.863,test2_run,2024.1.4,None,2024-05-01 16h03.53.647816 -0400,
"(3, 3)",g,0.0,9,23,239,1,0.2337642080092337,,0.12886329200409818,0.12903033300244715,941335,001,2024-05-01_16h03.44.863,test2_run,2024.1.4,None,2024-05-01 16h03.53.647816 -0400,
"(-3, 3)",p,0.0,10,0,240,23,0.2337642080092337,,0.12916587499785237,0.12929020800220314,941335,001,2024-05-01_16h03.44.863,test2_run,2024.1.4,None,2024-05-01 16h03.53.647816 -0400,
"(-4, 0)",g,"(3, -3)",10,1,241,14,0.2337642080092337,,0.12942537500930484,0.12954820800223388,941335,001,2024-05-01_16h03.44.863,test2_run,2024.1.4,None,2024-05-01 16h03.53.647816 -0400,
"(3, 3)",g,"(0, -4)",10,2,242,9,0.2337642080092337,,0.12968445800652262,0.1298084580048453,941335,001,2024-05-01_16h03.44.863,test2_run,2024.1.4,None,2024-05-01 16h03.53.647816 -0400,
"(-3, 3)",g,0.0,10,3,243,7,0.2337642080092337,,0.1299359580007149,0.1300859580078395,941335,001,2024-05-01_16h03.44.863,test2_run,2024.1.4,None,2024-05-01 16h03.53.647816 -0400,
"(0, 4)",p,0.0,10,4,244,16,0.2337642080092337,,0.1302177500037942,0.13033333299972583,941335,001,2024-05-01_16h03.44.863,test2_run,2024.1.4,None,2024-05-01 16h03.53.647816 -0400,
"(-3, -3)",p,0.0,10,5,245,21,0.2337642080092337,,0.130468583010952,0.13058262500271667,941335,001,2024-05-01_16h03.44.863,test2_run,2024.1.4,None,2024-05-01 16h03.53.647816 -0400,
"(3, 3)",g,0.0,10,6,246,1,0.2337642080092337,,0.1307152500085067,0.1308294580085203,941335,001,2024-05-01_16h03.44.863,test2_run,2024.1.4,None,2024-05-01 16h03.53.647816 -0400,
"(3, 3)",p,0.0,10,7,247,17,0.2337642080092337,,0.1309624999994412,0.13114125000720378,941335,001,2024-05-01_16h03.44.863,test2_run,2024.1.4,None,2024-05-01 16h03.53.647816 -0400,
"(3, -3)",g,"(4, 0)",10,8,248,11,0.2337642080092337,,0.13127491700288374,0.1314196669991361,941335,001,2024-05-01_16h03.44.863,test2_run,2024.1.4,None,2024-05-01 16h03.53.647816 -0400,
"(4, 0)",g,"(0, 4)",10,9,249,10,0.2337642080092337,,0.1315549999999348,0.13170412500039674,941335,001,2024-05-01_16h03.44.863,test2_run,2024.1.4,None,2024-05-01 16h03.53.647816 -0400,
"(0, 4)",g,0.0,10,10,250,0,0.2337642080092337,,0.13183741700777318,0.13197729201056063,941335,001,2024-05-01_16h03.44.863,test2_run,2024.1.4,None,2024-05-01 16h03.53.647816 -0400,
"(0, -4)",g,0.0,10,11,251,4,0.2337642080092337,,0.1321262499986915,0.13226412500080187,941335,001,2024-05-01_16h03.44.863,test2_run,2024.1.4,None,2024-05-01 16h03.53.647816 -0400,
"(-4, 0)",g,0.0,10,12,252,6,0.2337642080092337,,0.13239716700627469,0.13254333300574217,941335,001,2024-05-01_16h03.44.863,test2_run,2024.1.4,None,2024-05-01 16h03.53.647816 -0400,
"(4, 0)",g,0.0,10,13,253,2,0.2337642080092337,,0.13267670800269116,0.13281325000571087,941335,001,2024-05-01_16h03.44.863,test2_run,2024.1.4,None,2024-05-01 16h03.53.647816 -0400,
"(-3, -3)",g,0.0,10,14,254,5,0.2337642080092337,,0.13294733301154338,0.13309562500216998,941335,001,2024-05-01_16h03.44.863,test2_run,2024.1.4,None,2024-05-01 16h03.53.647816 -0400,
"(-4, 0)",p,0.0,10,15,255,22,0.2337642080092337,,0.13323666701035108,0.1333675000059884,941335,001,2024-05-01_16h03.44.863,test2_run,2024.1.4,None,2024-05-01 16h03.53.647816 -0400,
"(0, 4)",g,"(-3, -3)",10,16,256,8,0.2337642080092337,,0.1335102500015637,0.1336515419970965,941335,001,2024-05-01_16h03.44.863,test2_run,2024.1.4,None,2024-05-01 16h03.53.647816 -0400,
"(4, 0)",p,0.0,10,17,257,18,0.2337642080092337,,0.1337891250004759,0.13393066699791234,941335,001,2024-05-01_16h03.44.863,test2_run,2024.1.4,None,2024-05-01 16h03.53.647816 -0400,
"(-3, -3)",g,"(-4, 0)",10,18,258,13,0.2337642080092337,,0.1340628750040196,0.13420887500979006,941335,001,2024-05-01_16h03.44.863,test2_run,2024.1.4,None,2024-05-01 16h03.53.647816 -0400,
"(0, -4)",g,"(-3, 3)",10,19,259,12,0.2337642080092337,,0.13434375000360887,0.13448341700132005,941335,001,2024-05-01_16h03.44.863,test2_run,2024.1.4,None,2024-05-01 16h03.53.647816 -0400,
"(3, -3)",p,0.0,10,20,260,19,0.2337642080092337,,0.13461725000524893,0.13475641699915286,941335,001,2024-05-01_16h03.44.863,test2_run,2024.1.4,None,2024-05-01 16h03.53.647816 -0400,
"(-3, 3)",g,"(3, 3)",10,21,261,15,0.2337642080092337,,0.13488866700208746,0.13505391700891778,941335,001,2024-05-01_16h03.44.863,test2_run,2024.1.4,None,2024-05-01 16h03.53.647816 -0400,
"(3, -3)",g,0.0,10,22,262,3,0.2337642080092337,,0.13518625000142492,0.13537408300908282,941335,001,2024-05-01_16h03.44.863,test2_run,2024.1.4,None,2024-05-01 16h03.53.647816 -0400,
"(0, -4)",p,0.0,10,23,263,20,0.2337642080092337,,0.13550712500000373,0.13567208300810307,941335,001,2024-05-01_16h03.44.863,test2_run,2024.1.4,None,2024-05-01 16h03.53.647816 -0400,
"(0, 4)",p,0.0,11,0,264,16,0.2337642080092337,,0.13580508300219662,0.13596979199792258,941335,001,2024-05-01_16h03.44.863,test2_run,2024.1.4,None,2024-05-01 16h03.53.647816 -0400,
"(-3, -3)",p,0.0,11,1,265,21,0.2337642080092337,,0.13610770800733007,0.1362642500025686,941335,001,2024-05-01_16h03.44.863,test2_run,2024.1.4,None,2024-05-01 16h03.53.647816 -0400,
"(0, -4)",g,0.0,11,2,266,4,0.2337642080092337,,0.13640008300717454,0.13656275000539608,941335,001,2024-05-01_16h03.44.863,test2_run,2024.1.4,None,2024-05-01 16h03.53.647816 -0400,
"(-3, 3)",p,0.0,11,3,267,23,0.2337642080092337,,0.13669504200515803,0.13684508300502785,941335,001,2024-05-01_16h03.44.863,test2_run,2024.1.4,None,2024-05-01 16h03.53.647816 -0400,
"(0, -4)",p,0.0,11,4,268,20,0.2337642080092337,,0.13697712500288617,0.1371391249995213,941335,001,2024-05-01_16h03.44.863,test2_run,2024.1.4,None,2024-05-01 16h03.53.647816 -0400,
"(3, 3)",p,0.0,11,5,269,17,0.2337642080092337,,0.13727104201097973,0.1374780830083182,941335,001,2024-05-01_16h03.44.863,test2_run,2024.1.4,None,2024-05-01 16h03.53.647816 -0400,
"(3, -3)",p,0.0,11,6,270,19,0.2337642080092337,,0.13761387500562705,0.13777754201146308,941335,001,2024-05-01_16h03.44.863,test2_run,2024.1.4,None,2024-05-01 16h03.53.647816 -0400,
"(0, 4)",g,"(-3, -3)",11,7,271,8,0.2337642080092337,,0.1379096250020666,0.13807524999720044,941335,001,2024-05-01_16h03.44.863,test2_run,2024.1.4,None,2024-05-01 16h03.53.647816 -0400,
"(-3, 3)",g,0.0,11,8,272,7,0.2337642080092337,,0.13820833300997037,0.13836495800933335,941335,001,2024-05-01_16h03.44.863,test2_run,2024.1.4,None,2024-05-01 16h03.53.647816 -0400,
"(0, 4)",g,0.0,11,9,273,0,0.2337642080092337,,0.138503916998161,0.13866525000776164,941335,001,2024-05-01_16h03.44.863,test2_run,2024.1.4,None,2024-05-01 16h03.53.647816 -0400,
"(4, 0)",g,"(0, 4)",11,10,274,10,0.2337642080092337,,0.1387965419999091,0.138931292007328,941335,001,2024-05-01_16h03.44.863,test2_run,2024.1.4,None,2024-05-01 16h03.53.647816 -0400,
"(0, -4)",g,"(-3, 3)",11,11,275,12,0.2337642080092337,,0.13906375000078697,0.13920920800592285,941335,001,2024-05-01_16h03.44.863,test2_run,2024.1.4,None,2024-05-01 16h03.53.647816 -0400,
"(4, 0)",g,0.0,11,12,276,2,0.2337642080092337,,0.13934087500092573,0.13953266700264066,941335,001,2024-05-01_16h03.44.863,test2_run,2024.1.4,None,2024-05-01 16h03.53.647816 -0400,
"(3, 3)",g,"(0, -4)",11,13,277,9,0.2337642080092337,,0.1396706250088755,0.13981483300449327,941335,001,2024-05-01_16h03.44.863,test2_run,2024.1.4,None,2024-05-01 16h03.53.647816 -0400,
"(-3, 3)",g,"(3, 3)",11,14,278,15,0.2337642080092337,,0.13994950000778772,0.14009320799959823,941335,001,2024-05-01_16h03.44.863,test2_run,2024.1.4,None,2024-05-01 16h03.53.647816 -0400,
"(-3, -3)",g,"(-4, 0)",11,15,279,13,0.2337642080092337,,0.14022670799749903,0.14037037501111627,941335,001,2024-05-01_16h03.44.863,test2_run,2024.1.4,None,2024-05-01 16h03.53.647816 -0400,
"(-4, 0)",g,0.0,11,16,280,6,0.2337642080092337,,0.14051245800510515,0.14065345800190698,941335,001,2024-05-01_16h03.44.863,test2_run,2024.1.4,None,2024-05-01 16h03.53.647816 -0400,
"(3, -3)",g,"(4, 0)",11,17,281,11,0.2337642080092337,,0.14078516700828914,0.14093041700834874,941335,001,2024-05-01_16h03.44.863,test2_run,2024.1.4,None,2024-05-01 16h03.53.647816 -0400,
"(-3, -3)",g,0.0,11,18,282,5,0.2337642080092337,,0.14106308300688397,0.14120570800150745,941335,001,2024-05-01_16h03.44.863,test2_run,2024.1.4,None,2024-05-01 16h03.53.647816 -0400,
"(3, -3)",g,0.0,11,19,283,3,0.2337642080092337,,0.14133733299968299,0.1414754170109518,941335,001,2024-05-01_16h03.44.863,test2_run,2024.1.4,None,2024-05-01 16h03.53.647816 -0400,
"(-4, 0)",g,"(3, -3)",11,20,284,14,0.2337642080092337,,0.14161112500005402,0.14175812499888707,941335,001,2024-05-01_16h03.44.863,test2_run,2024.1.4,None,2024-05-01 16h03.53.647816 -0400,
"(4, 0)",p,0.0,11,21,285,18,0.2337642080092337,,0.14188887500495184,0.1420540420076577,941335,001,2024-05-01_16h03.44.863,test2_run,2024.1.4,None,2024-05-01 16h03.53.647816 -0400,
"(3, 3)",g,0.0,11,22,286,1,0.2337642080092337,,0.14218616700964049,0.1423329579993151,941335,001,2024-05-01_16h03.44.863,test2_run,2024.1.4,None,2024-05-01 16h03.53.647816 -0400,
"(-4, 0)",p,0.0,11,23,287,22,0.2337642080092337,,0.1424708330014255,0.14266004200908355,941335,001,2024-05-01_16h03.44.863,test2_run,2024.1.4,None,2024-05-01 16h03.53.647816 -0400,
"(3, -3)",g,"(4, 0)",12,0,288,11,0.2337642080092337,,0.14279779201024212,0.1429534170019906,941335,001,2024-05-01_16h03.44.863,test2_run,2024.1.4,None,2024-05-01 16h03.53.647816 -0400,
"(4, 0)",g,0.0,12,1,289,2,0.2337642080092337,,0.14309387499815784,0.14325775000907015,941335,001,2024-05-01_16h03.44.863,test2_run,2024.1.4,None,2024-05-01 16h03.53.647816 -0400,
"(3, 3)",g,"(0, -4)",12,2,290,9,0.2337642080092337,,0.14338995800062548,0.14354812500823755,941335,001,2024-05-01_16h03.44.863,test2_run,2024.1.4,None,2024-05-01 16h03.53.647816 -0400,
"(-4, 0)",p,0.0,12,3,291,22,0.2337642080092337,,0.14369199999782722,0.14385058300103992,941335,001,2024-05-01_16h03.44.863,test2_run,2024.1.4,None,2024-05-01 16h03.53.647816 -0400,
"(0, 4)",g,"(-3, -3)",12,4,292,8,0.2337642080092337,,0.14398274999985006,0.14414933300577104,941335,001,2024-05-01_16h03.44.863,test2_run,2024.1.4,None,2024-05-01 16h03.53.647816 -0400,
"(4, 0)",p,0.0,12,5,293,18,0.2337642080092337,,0.144284374997369,0.14444916699721944,941335,001,2024-05-01_16h03.44.863,test2_run,2024.1.4,None,2024-05-01 16h03.53.647816 -0400,
"(-3, 3)",g,"(3, 3)",12,6,294,15,0.2337642080092337,,0.1445809170108987,0.1447917080076877,941335,001,2024-05-01_16h03.44.863,test2_run,2024.1.4,None,2024-05-01 16h03.53.647816 -0400,
"(0, -4)",g,0.0,12,7,295,4,0.2337642080092337,,0.144927583009121,0.14508533300249837,941335,001,2024-05-01_16h03.44.863,test2_run,2024.1.4,None,2024-05-01 16h03.53.647816 -0400,
"(3, -3)",g,0.0,12,8,296,3,0.2337642080092337,,0.14521833301114384,0.14535975000762846,941335,001,2024-05-01_16h03.44.863,test2_run,2024.1.4,None,2024-05-01 16h03.53.647816 -0400,
"(0, -4)",g,"(-3, 3)",12,9,297,12,0.2337642080092337,,0.1454924999998184,0.14563637500395998,941335,001,2024-05-01_16h03.44.863,test2_run,2024.1.4,None,2024-05-01 16h03.53.647816 -0400,
"(-4, 0)",g,0.0,12,10,298,6,0.2337642080092337,,0.14577733300393447,0.14592062500014435,941335,001,2024-05-01_16h03.44.863,test2_run,2024.1.4,None,2024-05-01 16h03.53.647816 -0400,
"(-3, -3)",g,0.0,12,11,299,5,0.2337642080092337,,0.14605312500498258,0.14620095799909905,941335,001,2024-05-01_16h03.44.863,test2_run,2024.1.4,None,2024-05-01 16h03.53.647816 -0400,
"(4, 0)",g,"(0, 4)",12,12,300,10,0.2337642080092337,,0.14633516700996552,0.14648024999769405,941335,001,2024-05-01_16h03.44.863,test2_run,2024.1.4,None,2024-05-01 16h03.53.647816 -0400,
"(3, 3)",g,0.0,12,13,301,1,0.2337642080092337,,0.1466115420043934,0.14678450000064913,941335,001,2024-05-01_16h03.44.863,test2_run,2024.1.4,None,2024-05-01 16h03.53.647816 -0400,
"(3, 3)",p,0.0,12,14,302,17,0.2337642080092337,,0.14692458300851285,0.14709050000237767,941335,001,2024-05-01_16h03.44.863,test2_run,2024.1.4,None,2024-05-01 16h03.53.647816 -0400,
"(3, -3)",p,0.0,12,15,303,19,0.2337642080092337,,0.14722545800032094,0.1473893750080606,941335,001,2024-05-01_16h03.44.863,test2_run,2024.1.4,None,2024-05-01 16h03.53.647816 -0400,
"(0, 4)",g,0.0,12,16,304,0,0.2337642080092337,,0.1475224169989815,0.14768591700703837,941335,001,2024-05-01_16h03.44.863,test2_run,2024.1.4,None,2024-05-01 16h03.53.647816 -0400,
"(0, 4)",p,0.0,12,17,305,16,0.2337642080092337,,0.14782545799971558,0.14798804200836457,941335,001,2024-05-01_16h03.44.863,test2_run,2024.1.4,None,2024-05-01 16h03.53.647816 -0400,
"(-3, -3)",p,0.0,12,18,306,21,0.2337642080092337,,0.14811991700844374,0.1482840000098804,941335,001,2024-05-01_16h03.44.863,test2_run,2024.1.4,None,2024-05-01 16h03.53.647816 -0400,
"(0, -4)",p,0.0,12,19,307,20,0.2337642080092337,,0.1484152500052005,0.14857791700342204,941335,001,2024-05-01_16h03.44.863,test2_run,2024.1.4,None,2024-05-01 16h03.53.647816 -0400,
"(-3, 3)",g,0.0,12,20,308,7,0.2337642080092337,,0.1487097080098465,0.14889212499838322,941335,001,2024-05-01_16h03.44.863,test2_run,2024.1.4,None,2024-05-01 16h03.53.647816 -0400,
"(-3, -3)",g,"(-4, 0)",12,21,309,13,0.2337642080092337,,0.1490305830084253,0.14917733300535474,941335,001,2024-05-01_16h03.44.863,test2_run,2024.1.4,None,2024-05-01 16h03.53.647816 -0400,
"(-3, 3)",p,0.0,12,22,310,23,0.2337642080092337,,0.14931500000238884,0.14946220800629817,941335,001,2024-05-01_16h03.44.863,test2_run,2024.1.4,None,2024-05-01 16h03.53.647816 -0400,
"(-4, 0)",g,"(3, -3)",12,23,311,14,0.2337642080092337,,0.1495949170057429,0.14974679199804086,941335,001,2024-05-01_16h03.44.863,test2_run,2024.1.4,None,2024-05-01 16h03.53.647816 -0400,
"(0, -4)",g,0.0,13,0,312,4,0.2337642080092337,,0.14988399999856483,0.1500317080062814,941335,001,2024-05-01_16h03.44.863,test2_run,2024.1.4,None,2024-05-01 16h03.53.647816 -0400,
"(-4, 0)",g,"(3, -3)",13,1,313,14,0.2337642080092337,,0.15016400000604335,0.15030000000842847,941335,001,2024-05-01_16h03.44.863,test2_run,2024.1.4,None,2024-05-01 16h03.53.647816 -0400,
"(4, 0)",g,0.0,13,2,314,2,0.2337642080092337,,0.15043191700533498,0.15056758299760986,941335,001,2024-05-01_16h03.44.863,test2_run,2024.1.4,None,2024-05-01 16h03.53.647816 -0400,
"(3, 3)",p,0.0,13,3,315,17,0.2337642080092337,,0.1507002080033999,0.1508356249978533,941335,001,2024-05-01_16h03.44.863,test2_run,2024.1.4,None,2024-05-01 16h03.53.647816 -0400,
"(-3, -3)",g,"(-4, 0)",13,4,316,13,0.2337642080092337,,0.15097324999806006,0.15111575000628363,941335,001,2024-05-01_16h03.44.863,test2_run,2024.1.4,None,2024-05-01 16h03.53.647816 -0400,
"(3, 3)",g,0.0,13,5,317,1,0.2337642080092337,,0.15125320800871123,0.15138691700121854,941335,001,2024-05-01_16h03.44.863,test2_run,2024.1.4,None,2024-05-01 16h03.53.647816 -0400,
"(4, 0)",g,"(0, 4)",13,6,318,10,0.2337642080092337,,0.15152258300804533,0.15165754201007076,941335,001,2024-05-01_16h03.44.863,test2_run,2024.1.4,None,2024-05-01 16h03.53.647816 -0400,
"(4, 0)",p,0.0,13,7,319,18,0.2337642080092337,,0.15178908300003968,0.1519202920026146,941335,001,2024-05-01_16h03.44.863,test2_run,2024.1.4,None,2024-05-01 16h03.53.647816 -0400,
"(-3, 3)",g,"(3, 3)",13,8,320,15,0.2337642080092337,,0.15205541699833702,0.15220670800772496,941335,001,2024-05-01_16h03.44.863,test2_run,2024.1.4,None,2024-05-01 16h03.53.647816 -0400,
"(0, -4)",p,0.0,13,9,321,20,0.2337642080092337,,0.15233795800304506,0.1524863750091754,941335,001,2024-05-01_16h03.44.863,test2_run,2024.1.4,None,2024-05-01 16h03.53.647816 -0400,
"(0, 4)",p,0.0,13,10,322,16,0.2337642080092337,,0.15261825000925455,0.15276608300337102,941335,001,2024-05-01_16h03.44.863,test2_run,2024.1.4,None,2024-05-01 16h03.53.647816 -0400,
"(-3, -3)",p,0.0,13,11,323,21,0.2337642080092337,,0.15289787499932572,0.15308741699845996,941335,001,2024-05-01_16h03.44.863,test2_run,2024.1.4,None,2024-05-01 16h03.53.647816 -0400,
"(-3, -3)",g,0.0,13,12,324,5,0.2337642080092337,,0.15322558300977107,0.15337383300357033,941335,001,2024-05-01_16h03.44.863,test2_run,2024.1.4,None,2024-05-01 16h03.53.647816 -0400,
"(-4, 0)",p,0.0,13,13,325,22,0.2337642080092337,,0.15351095799996983,0.1536611250048736,941335,001,2024-05-01_16h03.44.863,test2_run,2024.1.4,None,2024-05-01 16h03.53.647816 -0400,
"(0, -4)",g,"(-3, 3)",13,14,326,12,0.2337642080092337,,0.15379345799738076,0.1539427079987945,941335,001,2024-05-01_16h03.44.863,test2_run,2024.1.4,None,2024-05-01 16h03.53.647816 -0400,
"(-3, 3)",p,0.0,13,15,327,23,0.2337642080092337,,0.15408412500983104,0.15423433300748002,941335,001,2024-05-01_16h03.44.863,test2_run,2024.1.4,None,2024-05-01 16h03.53.647816 -0400,
"(3, 3)",g,"(0, -4)",13,16,328,9,0.2337642080092337,,0.15437137499975506,0.15451108300476335,941335,001,2024-05-01_16h03.44.863,test2_run,2024.1.4,None,2024-05-01 16h03.53.647816 -0400,
"(3, -3)",g,0.0,13,17,329,3,0.2337642080092337,,0.15464345800864976,0.1547934999980498,941335,001,2024-05-01_16h03.44.863,test2_run,2024.1.4,None,2024-05-01 16h03.53.647816 -0400,
"(3, -3)",g,"(4, 0)",13,18,330,11,0.2337642080092337,,0.15492529200855643,0.15509066700178664,941335,001,2024-05-01_16h03.44.863,test2_run,2024.1.4,None,2024-05-01 16h03.53.647816 -0400,
"(-3, 3)",g,0.0,13,19,331,7,0.2337642080092337,,0.15522670801146887,0.15537179200327955,941335,001,2024-05-01_16h03.44.863,test2_run,2024.1.4,None,2024-05-01 16h03.53.647816 -0400,
"(0, 4)",g,0.0,13,20,332,0,0.2337642080092337,,0.1555059579986846,0.15565520800009836,941335,001,2024-05-01_16h03.44.863,test2_run,2024.1.4,None,2024-05-01 16h03.53.647816 -0400,
"(3, -3)",p,0.0,13,21,333,19,0.2337642080092337,,0.155791124998359,0.1559415829979116,941335,001,2024-05-01_16h03.44.863,test2_run,2024.1.4,None,2024-05-01 16h03.53.647816 -0400,
"(-4, 0)",g,0.0,13,22,334,6,0.2337642080092337,,0.15607850000378676,0.15624812500027474,941335,001,2024-05-01_16h03.44.863,test2_run,2024.1.4,None,2024-05-01 16h03.53.647816 -0400,
"(0, 4)",g,"(-3, -3)",13,23,335,8,0.2337642080092337,,0.15637787499872502,0.1565238750044955,941335,001,2024-05-01_16h03.44.863,test2_run,2024.1.4,None,2024-05-01 16h03.53.647816 -0400,
"(0, 4)",p,0.0,14,0,336,16,0.2337642080092337,,0.1566562500083819,0.1568071250076173,941335,001,2024-05-01_16h03.44.863,test2_run,2024.1.4,None,2024-05-01 16h03.53.647816 -0400,
"(-3, 3)",g,0.0,14,1,337,7,0.2337642080092337,,0.15693995800393168,0.15707766699779313,941335,001,2024-05-01_16h03.44.863,test2_run,2024.1.4,None,2024-05-01 16h03.53.647816 -0400,
"(-4, 0)",p,0.0,14,2,338,22,0.2337642080092337,,0.15721687499899417,0.15736554200702813,941335,001,2024-05-01_16h03.44.863,test2_run,2024.1.4,None,2024-05-01 16h03.53.647816 -0400,
"(0, -4)",p,0.0,14,3,339,20,0.2337642080092337,,0.15750462500727735,0.1576475420006318,941335,001,2024-05-01_16h03.44.863,test2_run,2024.1.4,None,2024-05-01 16h03.53.647816 -0400,
"(3, -3)",g,0.0,14,4,340,3,0.2337642080092337,,0.15778041700832546,0.15793104200565722,941335,001,2024-05-01_16h03.44.863,test2_run,2024.1.4,None,2024-05-01 16h03.53.647816 -0400,
"(4, 0)",p,0.0,14,5,341,18,0.2337642080092337,,0.1580661250045523,0.15823670799727552,941335,001,2024-05-01_16h03.44.863,test2_run,2024.1.4,None,2024-05-01 16h03.53.647816 -0400,
"(-4, 0)",g,0.0,14,6,342,6,0.2337642080092337,,0.15837616700446233,0.1585308750072727,941335,001,2024-05-01_16h03.44.863,test2_run,2024.1.4,None,2024-05-01 16h03.53.647816 -0400,
"(-3, -3)",p,0.0,14,7,343,21,0.2337642080092337,,0.15866691700648516,0.15883437500451691,941335,001,2024-05-01_16h03.44.863,test2_run,2024.1.4,None,2024-05-01 16h03.53.647816 -0400,
"(4, 0)",g,0.0,14,8,344,2,0.2337642080092337,,0.15896724999765866,0.15913158300099894,941335,001,2024-05-01_16h03.44.863,test2_run,2024.1.4,None,2024-05-01 16h03.53.647816 -0400,
"(3, 3)",p,0.0,14,9,345,17,0.2337642080092337,,0.1592715419974411,0.1594320830045035,941335,001,2024-05-01_16h03.44.863,test2_run,2024.1.4,None,2024-05-01 16h03.53.647816 -0400,
"(3, 3)",g,0.0,14,10,346,1,0.2337642080092337,,0.1595642080064863,0.15972950001014397,941335,001,2024-05-01_16h03.44.863,test2_run,2024.1.4,None,2024-05-01 16h03.53.647816 -0400,
"(0, 4)",g,0.0,14,11,347,0,0.2337642080092337,,0.15986300000804476,0.1600209169992013,941335,001,2024-05-01_16h03.44.863,test2_run,2024.1.4,None,2024-05-01 16h03.53.647816 -0400,
"(-3, 3)",p,0.0,14,12,348,23,0.2337642080092337,,0.16015187501034234,0.16033208300359547,941335,001,2024-05-01_16h03.44.863,test2_run,2024.1.4,None,2024-05-01 16h03.53.647816 -0400,
"(-4, 0)",g,"(3, -3)",14,13,349,14,0.2337642080092337,,0.1604677499999525,0.16063016701082233,941335,001,2024-05-01_16h03.44.863,test2_run,2024.1.4,None,2024-05-01 16h03.53.647816 -0400,
"(-3, 3)",g,"(3, 3)",14,14,350,15,0.2337642080092337,,0.1607644580071792,0.16092837500036694,941335,001,2024-05-01_16h03.44.863,test2_run,2024.1.4,None,2024-05-01 16h03.53.647816 -0400,
"(0, 4)",g,"(-3, -3)",14,15,351,8,0.2337642080092337,,0.1610672500100918,0.16123158299888019,941335,001,2024-05-01_16h03.44.863,test2_run,2024.1.4,None,2024-05-01 16h03.53.647816 -0400,
"(3, -3)",p,0.0,14,16,352,19,0.2337642080092337,,0.1613705000054324,0.16153175001090858,941335,001,2024-05-01_16h03.44.863,test2_run,2024.1.4,None,2024-05-01 16h03.53.647816 -0400,
"(4, 0)",g,"(0, 4)",14,17,353,10,0.2337642080092337,,0.16166316700400785,0.16182833300263155,941335,001,2024-05-01_16h03.44.863,test2_run,2024.1.4,None,2024-05-01 16h03.53.647816 -0400,
"(0, -4)",g,0.0,14,18,354,4,0.2337642080092337,,0.16196091700112447,0.16212591700605117,941335,001,2024-05-01_16h03.44.863,test2_run,2024.1.4,None,2024-05-01 16h03.53.647816 -0400,
"(-3, -3)",g,"(-4, 0)",14,19,355,13,0.2337642080092337,,0.1622587080055382,0.16242508300638292,941335,001,2024-05-01_16h03.44.863,test2_run,2024.1.4,None,2024-05-01 16h03.53.647816 -0400,
"(3, 3)",g,"(0, -4)",14,20,356,9,0.2337642080092337,,0.1625595420046011,0.162724125009845,941335,001,2024-05-01_16h03.44.863,test2_run,2024.1.4,None,2024-05-01 16h03.53.647816 -0400,
"(0, -4)",g,"(-3, 3)",14,21,357,12,0.2337642080092337,,0.16285845800302923,0.16302325000287965,941335,001,2024-05-01_16h03.44.863,test2_run,2024.1.4,None,2024-05-01 16h03.53.647816 -0400,
"(3, -3)",g,"(4, 0)",14,22,358,11,0.2337642080092337,,0.16315583299729042,0.16331270799855702,941335,001,2024-05-01_16h03.44.863,test2_run,2024.1.4,None,2024-05-01 16h03.53.647816 -0400,
"(-3, -3)",g,0.0,14,23,359,5,0.2337642080092337,,0.16345395799726248,0.16361791700182948,941335,001,2024-05-01_16h03.44.863,test2_run,2024.1.4,None,2024-05-01 16h03.53.647816 -0400,
"(-3, 3)",p,0.0,15,0,360,23,0.2337642080092337,,0.16375095800322015,0.16391358300461434,941335,001,2024-05-01_16h03.44.863,test2_run,2024.1.4,None,2024-05-01 16h03.53.647816 -0400,
"(-4, 0)",g,0.0,15,1,361,6,0.2337642080092337,,0.1640455419983482,0.16420783300418407,941335,001,2024-05-01_16h03.44.863,test2_run,2024.1.4,None,2024-05-01 16h03.53.647816 -0400,
"(4, 0)",p,0.0,15,2,362,18,0.2337642080092337,,0.16433979199791793,0.1645244170067599,941335,001,2024-05-01_16h03.44.863,test2_run,2024.1.4,None,2024-05-01 16h03.53.647816 -0400,
"(0, -4)",g,0.0,15,3,363,4,0.2337642080092337,,0.16465929200057872,0.16482625000935514,941335,001,2024-05-01_16h03.44.863,test2_run,2024.1.4,None,2024-05-01 16h03.53.647816 -0400,
"(3, -3)",g,"(4, 0)",15,4,364,11,0.2337642080092337,,0.1649600829987321,0.1651227080001263,941335,001,2024-05-01_16h03.44.863,test2_run,2024.1.4,None,2024-05-01 16h03.53.647816 -0400,
"(-4, 0)",g,"(3, -3)",15,5,365,14,0.2337642080092337,,0.16525487499893643,0.16541708300064784,941335,001,2024-05-01_16h03.44.863,test2_run,2024.1.4,None,2024-05-01 16h03.53.647816 -0400,
"(-4, 0)",p,0.0,15,6,366,22,0.2337642080092337,,0.16555525000148918,0.16571720800129697,941335,001,2024-05-01_16h03.44.863,test2_run,2024.1.4,None,2024-05-01 16h03.53.647816 -0400,
"(4, 0)",g,0.0,15,7,367,2,0.2337642080092337,,0.16585170800681226,0.16601795800670516,941335,001,2024-05-01_16h03.44.863,test2_run,2024.1.4,None,2024-05-01 16h03.53.647816 -0400,
"(-3, -3)",p,0.0,15,8,368,21,0.2337642080092337,,0.16614954199758358,0.16629429200838786,941335,001,2024-05-01_16h03.44.863,test2_run,2024.1.4,None,2024-05-01 16h03.53.647816 -0400,
"(3, -3)",g,0.0,15,9,369,3,0.2337642080092337,,0.16642687500279862,0.1666092500090599,941335,001,2024-05-01_16h03.44.863,test2_run,2024.1.4,None,2024-05-01 16h03.53.647816 -0400,
"(3, 3)",p,0.0,15,10,370,17,0.2337642080092337,,0.16674358300224412,0.16690725000808015,941335,001,2024-05-01_16h03.44.863,test2_run,2024.1.4,None,2024-05-01 16h03.53.647816 -0400,
"(-3, 3)",g,"(3, 3)",15,11,371,15,0.2337642080092337,,0.16704075000598095,0.1672052500071004,941335,001,2024-05-01_16h03.44.863,test2_run,2024.1.4,None,2024-05-01 16h03.53.647816 -0400,
"(3, 3)",g,0.0,15,12,372,1,0.2337642080092337,,0.16733754200686235,0.1675027500023134,941335,001,2024-05-01_16h03.44.863,test2_run,2024.1.4,None,2024-05-01 16h03.53.647816 -0400,
"(-3, -3)",g,0.0,15,13,373,5,0.2337642080092337,,0.16764112500823103,0.16780629201093689,941335,001,2024-05-01_16h03.44.863,test2_run,2024.1.4,None,2024-05-01 16h03.53.647816 -0400,
"(3, -3)",p,0.0,15,14,374,19,0.2337642080092337,,0.1679387080075685,0.16810366700519808,941335,001,2024-05-01_16h03.44.863,test2_run,2024.1.4,None,2024-05-01 16h03.53.647816 -0400,
"(3, 3)",g,"(0, -4)",15,15,375,9,0.2337642080092337,,0.16823808300250676,0.16840079199755564,941335,001,2024-05-01_16h03.44.863,test2_run,2024.1.4,None,2024-05-01 16h03.53.647816 -0400,
"(0, 4)",g,"(-3, -3)",15,16,376,8,0.2337642080092337,,0.16853316700144205,0.16871329200512264,941335,001,2024-05-01_16h03.44.863,test2_run,2024.1.4,None,2024-05-01 16h03.53.647816 -0400,
"(0, -4)",g,"(-3, 3)",15,17,377,12,0.2337642080092337,,0.1688470000080997,0.16901374999724794,941335,001,2024-05-01_16h03.44.863,test2_run,2024.1.4,None,2024-05-01 16h03.53.647816 -0400,
"(-3, -3)",g,"(-4, 0)",15,18,378,13,0.2337642080092337,,0.1691484170005424,0.16931187499722,941335,001,2024-05-01_16h03.44.863,test2_run,2024.1.4,None,2024-05-01 16h03.53.647816 -0400,
"(0, 4)",g,0.0,15,19,379,0,0.2337642080092337,,0.16944508301094174,0.16961033300322015,941335,001,2024-05-01_16h03.44.863,test2_run,2024.1.4,None,2024-05-01 16h03.53.647816 -0400,
"(-3, 3)",g,0.0,15,20,380,7,0.2337642080092337,,0.16975045800791122,0.16991120800958015,941335,001,2024-05-01_16h03.44.863,test2_run,2024.1.4,None,2024-05-01 16h03.53.647816 -0400,
"(0, -4)",p,0.0,15,21,381,20,0.2337642080092337,,0.17004691700276453,0.1702035420021275,941335,001,2024-05-01_16h03.44.863,test2_run,2024.1.4,None,2024-05-01 16h03.53.647816 -0400,
"(4, 0)",g,"(0, 4)",15,22,382,10,0.2337642080092337,,0.17033537500537932,0.17049904201121535,941335,001,2024-05-01_16h03.44.863,test2_run,2024.1.4,None,2024-05-01 16h03.53.647816 -0400,
"(0, 4)",p,0.0,15,23,383,16,0.2337642080092337,,0.17063704199972562,0.17081912500725593,941335,001,2024-05-01_16h03.44.863,test2_run,2024.1.4,None,2024-05-01 16h03.53.647816 -0400,
"(3, -3)",g,"(4, 0)",16,0,384,11,0.2337642080092337,,0.17095962500025053,0.1711201670113951,941335,001,2024-05-01_16h03.44.863,test2_run,2024.1.4,None,2024-05-01 16h03.53.647816 -0400,
"(4, 0)",p,0.0,16,1,385,18,0.2337642080092337,,0.1712537920102477,0.1714012080046814,941335,001,2024-05-01_16h03.44.863,test2_run,2024.1.4,None,2024-05-01 16h03.53.647816 -0400,
"(-3, 3)",g,"(3, 3)",16,2,386,15,0.2337642080092337,,0.17153433299972676,0.1716797920089448,941335,001,2024-05-01_16h03.44.863,test2_run,2024.1.4,None,2024-05-01 16h03.53.647816 -0400,
"(-4, 0)",g,0.0,16,3,387,6,0.2337642080092337,,0.17181549999804702,0.17195829200500157,941335,001,2024-05-01_16h03.44.863,test2_run,2024.1.4,None,2024-05-01 16h03.53.647816 -0400,
"(-4, 0)",g,"(3, -3)",16,4,388,14,0.2337642080092337,,0.17208716701134108,0.17224245800753124,941335,001,2024-05-01_16h03.44.863,test2_run,2024.1.4,None,2024-05-01 16h03.53.647816 -0400,
"(-3, -3)",g,"(-4, 0)",16,5,389,13,0.2337642080092337,,0.1723744170012651,0.17253725000773557,941335,001,2024-05-01_16h03.44.863,test2_run,2024.1.4,None,2024-05-01 16h03.53.647816 -0400,
"(0, 4)",g,"(-3, -3)",16,6,390,8,0.2337642080092337,,0.17267204199742991,0.172830374998739,941335,001,2024-05-01_16h03.44.863,test2_run,2024.1.4,None,2024-05-01 16h03.53.647816 -0400,
"(-3, 3)",g,0.0,16,7,391,7,0.2337642080092337,,0.17297075000533368,0.17312579200370237,941335,001,2024-05-01_16h03.44.863,test2_run,2024.1.4,None,2024-05-01 16h03.53.647816 -0400,
"(3, -3)",g,0.0,16,8,392,3,0.2337642080092337,,0.17325683300441597,0.1734165420057252,941335,001,2024-05-01_16h03.44.863,test2_run,2024.1.4,None,2024-05-01 16h03.53.647816 -0400,
"(3, 3)",g,0.0,16,9,393,1,0.2337642080092337,,0.17354862501088064,0.1736905420111725,941335,001,2024-05-01_16h03.44.863,test2_run,2024.1.4,None,2024-05-01 16h03.53.647816 -0400,
"(0, 4)",p,0.0,16,10,394,16,0.2337642080092337,,0.1738223749998724,0.17400787500082515,941335,001,2024-05-01_16h03.44.863,test2_run,2024.1.4,None,2024-05-01 16h03.53.647816 -0400,
"(0, -4)",p,0.0,16,11,395,20,0.2337642080092337,,0.17414608300896361,0.1742971670028055,941335,001,2024-05-01_16h03.44.863,test2_run,2024.1.4,None,2024-05-01 16h03.53.647816 -0400,
"(-3, -3)",g,0.0,16,12,396,5,0.2337642080092337,,0.17443129200546537,0.1745804170059273,941335,001,2024-05-01_16h03.44.863,test2_run,2024.1.4,None,2024-05-01 16h03.53.647816 -0400,
"(0, -4)",g,0.0,16,13,397,4,0.2337642080092337,,0.17471291701076552,0.17487550000078045,941335,001,2024-05-01_16h03.44.863,test2_run,2024.1.4,None,2024-05-01 16h03.53.647816 -0400,
"(3, 3)",p,0.0,16,14,398,17,0.2337642080092337,,0.17502579200663604,0.1751823329977924,941335,001,2024-05-01_16h03.44.863,test2_run,2024.1.4,None,2024-05-01 16h03.53.647816 -0400,
"(0, 4)",g,0.0,16,15,399,0,0.2337642080092337,,0.17531487499945797,0.17547916701005306,941335,001,2024-05-01_16h03.44.863,test2_run,2024.1.4,None,2024-05-01 16h03.53.647816 -0400,
"(-3, -3)",p,0.0,16,16,400,21,0.2337642080092337,,0.1756109580019256,0.17577575000177603,941335,001,2024-05-01_16h03.44.863,test2_run,2024.1.4,None,2024-05-01 16h03.53.647816 -0400,
"(0, -4)",g,"(-3, 3)",16,17,401,12,0.2337642080092337,,0.17590754199773073,0.17610454199893866,941335,001,2024-05-01_16h03.44.863,test2_run,2024.1.4,None,2024-05-01 16h03.53.647816 -0400,
"(3, 3)",g,"(0, -4)",16,18,402,9,0.2337642080092337,,0.17624295799760148,0.17640870800823905,941335,001,2024-05-01_16h03.44.863,test2_run,2024.1.4,None,2024-05-01 16h03.53.647816 -0400,
"(-4, 0)",p,0.0,16,19,403,22,0.2337642080092337,,0.1765418330032844,0.17670479200023692,941335,001,2024-05-01_16h03.44.863,test2_run,2024.1.4,None,2024-05-01 16h03.53.647816 -0400,
"(3, -3)",p,0.0,16,20,404,19,0.2337642080092337,,0.17683754200697877,0.17699800000991672,941335,001,2024-05-01_16h03.44.863,test2_run,2024.1.4,None,2024-05-01 16h03.53.647816 -0400,
"(4, 0)",g,"(0, 4)",16,21,405,10,0.2337642080092337,,0.1771387080079876,0.17730075000145007,941335,001,2024-05-01_16h03.44.863,test2_run,2024.1.4,None,2024-05-01 16h03.53.647816 -0400,
"(4, 0)",g,0.0,16,22,406,2,0.2337642080092337,,0.17743320800946094,0.1775951250019716,941335,001,2024-05-01_16h03.44.863,test2_run,2024.1.4,None,2024-05-01 16h03.53.647816 -0400,
"(-3, 3)",p,0.0,16,23,407,23,0.2337642080092337,,0.1777269169979263,0.17788854200625792,941335,001,2024-05-01_16h03.44.863,test2_run,2024.1.4,None,2024-05-01 16h03.53.647816 -0400,
"(3, -3)",g,"(4, 0)",17,0,408,11,0.2337642080092337,,0.1780275830096798,0.1782273749995511,941335,001,2024-05-01_16h03.44.863,test2_run,2024.1.4,None,2024-05-01 16h03.53.647816 -0400,
"(-4, 0)",g,"(3, -3)",17,1,409,14,0.2337642080092337,,0.1783627080003498,0.17851320801128168,941335,001,2024-05-01_16h03.44.863,test2_run,2024.1.4,None,2024-05-01 16h03.53.647816 -0400,
"(0, -4)",g,0.0,17,2,410,4,0.2337642080092337,,0.17864641699998174,0.17881491700245533,941335,001,2024-05-01_16h03.44.863,test2_run,2024.1.4,None,2024-05-01 16h03.53.647816 -0400,
"(0, 4)",g,"(-3, -3)",17,3,411,8,0.2337642080092337,,0.17894745800003875,0.179100292007206,941335,001,2024-05-01_16h03.44.863,test2_run,2024.1.4,None,2024-05-01 16h03.53.647816 -0400,
"(-4, 0)",p,0.0,17,4,412,22,0.2337642080092337,,0.17924383300123736,0.17940554200322367,941335,001,2024-05-01_16h03.44.863,test2_run,2024.1.4,None,2024-05-01 16h03.53.647816 -0400,
"(-3, -3)",g,"(-4, 0)",17,5,413,13,0.2337642080092337,,0.17953758301155176,0.17970004200469702,941335,001,2024-05-01_16h03.44.863,test2_run,2024.1.4,None,2024-05-01 16h03.53.647816 -0400,
"(3, 3)",p,0.0,17,6,414,17,0.2337642080092337,,0.17985666700406,0.18001404200913385,941335,001,2024-05-01_16h03.44.863,test2_run,2024.1.4,None,2024-05-01 16h03.53.647816 -0400,
"(3, 3)",g,0.0,17,7,415,1,0.2337642080092337,,0.1801517080020858,0.18033562500204425,941335,001,2024-05-01_16h03.44.863,test2_run,2024.1.4,None,2024-05-01 16h03.53.647816 -0400,
"(0, 4)",g,0.0,17,8,416,0,0.2337642080092337,,0.18046954199962784,0.18063283299852628,941335,001,2024-05-01_16h03.44.863,test2_run,2024.1.4,None,2024-05-01 16h03.53.647816 -0400,
"(4, 0)",g,0.0,17,9,417,2,0.2337642080092337,,0.1807658750039991,0.18092658300884068,941335,001,2024-05-01_16h03.44.863,test2_run,2024.1.4,None,2024-05-01 16h03.53.647816 -0400,
"(0, -4)",p,0.0,17,10,418,20,0.2337642080092337,,0.1810615420108661,0.18122129200492054,941335,001,2024-05-01_16h03.44.863,test2_run,2024.1.4,None,2024-05-01 16h03.53.647816 -0400,
"(4, 0)",g,"(0, 4)",17,11,419,10,0.2337642080092337,,0.18135933300072793,0.1815217080002185,941335,001,2024-05-01_16h03.44.863,test2_run,2024.1.4,None,2024-05-01 16h03.53.647816 -0400,
"(-3, -3)",g,0.0,17,12,420,5,0.2337642080092337,,0.18165420800505672,0.1818169170001056,941335,001,2024-05-01_16h03.44.863,test2_run,2024.1.4,None,2024-05-01 16h03.53.647816 -0400,
"(-4, 0)",g,0.0,17,13,421,6,0.2337642080092337,,0.18194866699923296,0.18210750000434928,941335,001,2024-05-01_16h03.44.863,test2_run,2024.1.4,None,2024-05-01 16h03.53.647816 -0400,
"(-3, 3)",p,0.0,17,14,422,23,0.2337642080092337,,0.18223904199840035,0.1824596670048777,941335,001,2024-05-01_16h03.44.863,test2_run,2024.1.4,None,2024-05-01 16h03.53.647816 -0400,
"(0, -4)",g,"(-3, 3)",17,15,423,12,0.2337642080092337,,0.18260979199840222,0.18275733300833963,941335,001,2024-05-01_16h03.44.863,test2_run,2024.1.4,None,2024-05-01 16h03.53.647816 -0400,
"(3, -3)",g,0.0,17,16,424,3,0.2337642080092337,,0.1828904170106398,0.18304783300845884,941335,001,2024-05-01_16h03.44.863,test2_run,2024.1.4,None,2024-05-01 16h03.53.647816 -0400,
"(-3, -3)",p,0.0,17,17,425,21,0.2337642080092337,,0.18318179200286977,0.1833253750082804,941335,001,2024-05-01_16h03.44.863,test2_run,2024.1.4,None,2024-05-01 16h03.53.647816 -0400,
"(0, 4)",p,0.0,17,18,426,16,0.2337642080092337,,0.1834632079990115,0.18362262500158977,941335,001,2024-05-01_16h03.44.863,test2_run,2024.1.4,None,2024-05-01 16h03.53.647816 -0400,
"(4, 0)",p,0.0,17,19,427,18,0.2337642080092337,,0.183755125006428,0.1839175420027459,941335,001,2024-05-01_16h03.44.863,test2_run,2024.1.4,None,2024-05-01 16h03.53.647816 -0400,
"(-3, 3)",g,"(3, 3)",17,20,428,15,0.2337642080092337,,0.18404954200377688,0.18421400000806898,941335,001,2024-05-01_16h03.44.863,test2_run,2024.1.4,None,2024-05-01 16h03.53.647816 -0400,
"(3, -3)",p,0.0,17,21,429,19,0.2337642080092337,,0.18434287499985658,0.18457325000781566,941335,001,2024-05-01_16h03.44.863,test2_run,2024.1.4,None,2024-05-01 16h03.53.647816 -0400,
"(-3, 3)",g,0.0,17,22,430,7,0.2337642080092337,,0.18471808300819248,0.18487204200937413,941335,001,2024-05-01_16h03.44.863,test2_run,2024.1.4,None,2024-05-01 16h03.53.647816 -0400,
"(3, 3)",g,"(0, -4)",17,23,431,9,0.2337642080092337,,0.1850039170094533,0.18516604200704023,941335,001,2024-05-01_16h03.44.863,test2_run,2024.1.4,None,2024-05-01 16h03.53.647816 -0400,
"(0, 4)",g,"(-3, -3)",18,0,432,8,0.2337642080092337,,0.1853091250086436,0.1854742499999702,941335,001,2024-05-01_16h03.44.863,test2_run,2024.1.4,None,2024-05-01 16h03.53.647816 -0400,
"(4, 0)",g,"(0, 4)",18,1,433,10,0.2337642080092337,,0.18561216699890792,0.18577733299753163,941335,001,2024-05-01_16h03.44.863,test2_run,2024.1.4,None,2024-05-01 16h03.53.647816 -0400,
"(4, 0)",p,0.0,18,2,434,18,0.2337642080092337,,0.18590970800141804,0.18606079200981185,941335,001,2024-05-01_16h03.44.863,test2_run,2024.1.4,None,2024-05-01 16h03.53.647816 -0400,
"(3, -3)",p,0.0,18,3,435,19,0.2337642080092337,,0.18619525000394788,0.18635491700842977,941335,001,2024-05-01_16h03.44.863,test2_run,2024.1.4,None,2024-05-01 16h03.53.647816 -0400,
"(0, -4)",g,"(-3, 3)",18,4,436,12,0.2337642080092337,,0.18649370800994802,0.18664387500029989,941335,001,2024-05-01_16h03.44.863,test2_run,2024.1.4,None,2024-05-01 16h03.53.647816 -0400,
"(-3, 3)",p,0.0,18,5,437,23,0.2337642080092337,,0.1867827079986455,0.1869471250101924,941335,001,2024-05-01_16h03.44.863,test2_run,2024.1.4,None,2024-05-01 16h03.53.647816 -0400,
"(-3, 3)",g,"(3, 3)",18,6,438,15,0.2337642080092337,,0.18707916700805072,0.1872436249977909,941335,001,2024-05-01_16h03.44.863,test2_run,2024.1.4,None,2024-05-01 16h03.53.647816 -0400,
"(-3, 3)",g,0.0,18,7,439,7,0.2337642080092337,,0.18737504200544208,0.1875310830073431,941335,001,2024-05-01_16h03.44.863,test2_run,2024.1.4,None,2024-05-01 16h03.53.647816 -0400,
"(-4, 0)",p,0.0,18,8,440,22,0.2337642080092337,,0.18766675000370014,0.18783870800689328,941335,001,2024-05-01_16h03.44.863,test2_run,2024.1.4,None,2024-05-01 16h03.53.647816 -0400,
"(3, -3)",g,0.0,18,9,441,3,0.2337642080092337,,0.18797258300764952,0.18813650000083726,941335,001,2024-05-01_16h03.44.863,test2_run,2024.1.4,None,2024-05-01 16h03.53.647816 -0400,
"(-3, -3)",p,0.0,18,10,442,21,0.2337642080092337,,0.18827183300163597,0.18843554200429935,941335,001,2024-05-01_16h03.44.863,test2_run,2024.1.4,None,2024-05-01 16h03.53.647816 -0400,
"(3, 3)",p,0.0,18,11,443,17,0.2337642080092337,,0.18857470800867304,0.1887658750056289,941335,001,2024-05-01_16h03.44.863,test2_run,2024.1.4,None,2024-05-01 16h03.53.647816 -0400,
"(0, 4)",g,0.0,18,12,444,0,0.2337642080092337,,0.18890420800016727,0.1890684170066379,941335,001,2024-05-01_16h03.44.863,test2_run,2024.1.4,None,2024-05-01 16h03.53.647816 -0400,
"(-3, -3)",g,0.0,18,13,445,5,0.2337642080092337,,0.1892017080099322,0.18936129201028962,941335,001,2024-05-01_16h03.44.863,test2_run,2024.1.4,None,2024-05-01 16h03.53.647816 -0400,
"(3, -3)",g,"(4, 0)",18,14,446,11,0.2337642080092337,,0.18949375000374857,0.1896505420008907,941335,001,2024-05-01_16h03.44.863,test2_run,2024.1.4,None,2024-05-01 16h03.53.647816 -0400,
"(0, 4)",p,0.0,18,15,447,16,0.2337642080092337,,0.18978612500359304,0.18994504200236406,941335,001,2024-05-01_16h03.44.863,test2_run,2024.1.4,None,2024-05-01 16h03.53.647816 -0400,
"(-3, -3)",g,"(-4, 0)",18,16,448,13,0.2337642080092337,,0.19009033300972078,0.1902629579999484,941335,001,2024-05-01_16h03.44.863,test2_run,2024.1.4,None,2024-05-01 16h03.53.647816 -0400,
"(3, 3)",g,"(0, -4)",18,17,449,9,0.2337642080092337,,0.19040008301089983,0.19056204200023785,941335,001,2024-05-01_16h03.44.863,test2_run,2024.1.4,None,2024-05-01 16h03.53.647816 -0400,
"(-4, 0)",g,"(3, -3)",18,18,450,14,0.2337642080092337,,0.19070775000727735,0.19087929200031795,941335,001,2024-05-01_16h03.44.863,test2_run,2024.1.4,None,2024-05-01 16h03.53.647816 -0400,
"(4, 0)",g,0.0,18,19,451,2,0.2337642080092337,,0.19101112500356976,0.19115875000716187,941335,001,2024-05-01_16h03.44.863,test2_run,2024.1.4,None,2024-05-01 16h03.53.647816 -0400,
"(-4, 0)",g,0.0,18,20,452,6,0.2337642080092337,,0.19129020800755825,0.19143816700670868,941335,001,2024-05-01_16h03.44.863,test2_run,2024.1.4,None,2024-05-01 16h03.53.647816 -0400,
"(0, -4)",p,0.0,18,21,453,20,0.2337642080092337,,0.1915702499973122,0.19173441700695548,941335,001,2024-05-01_16h03.44.863,test2_run,2024.1.4,None,2024-05-01 16h03.53.647816 -0400,
"(3, 3)",g,0.0,18,22,454,1,0.2337642080092337,,0.19187387501006015,0.19202179199783131,941335,001,2024-05-01_16h03.44.863,test2_run,2024.1.4,None,2024-05-01 16h03.53.647816 -0400,
"(0, -4)",g,0.0,18,23,455,4,0.2337642080092337,,0.19215054200321902,0.19231662500533275,941335,001,2024-05-01_16h03.44.863,test2_run,2024.1.4,None,2024-05-01 16h03.53.647816 -0400,
"(3, 3)",g,"(0, -4)",19,0,456,9,0.2337642080092337,,0.19244933300069533,0.19259595801122487,941335,001,2024-05-01_16h03.44.863,test2_run,2024.1.4,None,2024-05-01 16h03.53.647816 -0400,
"(-3, -3)",p,0.0,19,1,457,21,0.2337642080092337,,0.1927280000090832,0.1928938330092933,941335,001,2024-05-01_16h03.44.863,test2_run,2024.1.4,None,2024-05-01 16h03.53.647816 -0400,
"(0, -4)",g,0.0,19,2,458,4,0.2337642080092337,,0.19303325000510085,0.19318166701123118,941335,001,2024-05-01_16h03.44.863,test2_run,2024.1.4,None,2024-05-01 16h03.53.647816 -0400,
"(4, 0)",g,"(0, 4)",19,3,459,10,0.2337642080092337,,0.19332029200450052,0.19346616700931918,941335,001,2024-05-01_16h03.44.863,test2_run,2024.1.4,None,2024-05-01 16h03.53.647816 -0400,
"(4, 0)",g,0.0,19,4,460,2,0.2337642080092337,,0.19359887500468176,0.1937509170093108,941335,001,2024-05-01_16h03.44.863,test2_run,2024.1.4,None,2024-05-01 16h03.53.647816 -0400,
"(0, -4)",g,"(-3, 3)",19,5,461,12,0.2337642080092337,,0.19388587500725407,0.1940448329987703,941335,001,2024-05-01_16h03.44.863,test2_run,2024.1.4,None,2024-05-01 16h03.53.647816 -0400,
"(-4, 0)",g,0.0,19,6,462,6,0.2337642080092337,,0.19417487501050346,0.19434000000183005,941335,001,2024-05-01_16h03.44.863,test2_run,2024.1.4,None,2024-05-01 16h03.53.647816 -0400,
"(-3, 3)",g,"(3, 3)",19,7,463,15,0.2337642080092337,,0.19447366699751,0.19463637500302866,941335,001,2024-05-01_16h03.44.863,test2_run,2024.1.4,None,2024-05-01 16h03.53.647816 -0400,
"(3, -3)",g,"(4, 0)",19,8,464,11,0.2337642080092337,,0.19476879200374242,0.19492741700378247,941335,001,2024-05-01_16h03.44.863,test2_run,2024.1.4,None,2024-05-01 16h03.53.647816 -0400,
"(0, -4)",p,0.0,19,9,465,20,0.2337642080092337,,0.19506574999832083,0.19523425000079442,941335,001,2024-05-01_16h03.44.863,test2_run,2024.1.4,None,2024-05-01 16h03.53.647816 -0400,
"(4, 0)",p,0.0,19,10,466,18,0.2337642080092337,,0.19536641699960455,0.19552850000036415,941335,001,2024-05-01_16h03.44.863,test2_run,2024.1.4,None,2024-05-01 16h03.53.647816 -0400,
"(-3, -3)",g,0.0,19,11,467,5,0.2337642080092337,,0.19566104200202972,0.19581595800991636,941335,001,2024-05-01_16h03.44.863,test2_run,2024.1.4,None,2024-05-01 16h03.53.647816 -0400,
"(-3, 3)",p,0.0,19,12,468,23,0.2337642080092337,,0.1959545830031857,0.1961457080033142,941335,001,2024-05-01_16h03.44.863,test2_run,2024.1.4,None,2024-05-01 16h03.53.647816 -0400,
"(-3, -3)",g,"(-4, 0)",19,13,469,13,0.2337642080092337,,0.19628475001081824,0.19644866700400598,941335,001,2024-05-01_16h03.44.863,test2_run,2024.1.4,None,2024-05-01 16h03.53.647816 -0400,
"(3, 3)",g,0.0,19,14,470,1,0.2337642080092337,,0.1965818750031758,0.19674691700492986,941335,001,2024-05-01_16h03.44.863,test2_run,2024.1.4,None,2024-05-01 16h03.53.647816 -0400,
"(3, 3)",p,0.0,19,15,471,17,0.2337642080092337,,0.1968807920056861,0.19703729200409725,941335,001,2024-05-01_16h03.44.863,test2_run,2024.1.4,None,2024-05-01 16h03.53.647816 -0400,
"(-4, 0)",p,0.0,19,16,472,22,0.2337642080092337,,0.197172333006165,0.19733570799871814,941335,001,2024-05-01_16h03.44.863,test2_run,2024.1.4,None,2024-05-01 16h03.53.647816 -0400,
"(0, 4)",g,0.0,19,17,473,0,0.2337642080092337,,0.1974711670045508,0.19763229200907517,941335,001,2024-05-01_16h03.44.863,test2_run,2024.1.4,None,2024-05-01 16h03.53.647816 -0400,
"(-4, 0)",g,"(3, -3)",19,18,474,14,0.2337642080092337,,0.1977651670022169,0.1979242079978576,941335,001,2024-05-01_16h03.44.863,test2_run,2024.1.4,None,2024-05-01 16h03.53.647816 -0400,
"(0, 4)",g,"(-3, -3)",19,19,475,8,0.2337642080092337,,0.19806254201103002,0.198250375004136,941335,001,2024-05-01_16h03.44.863,test2_run,2024.1.4,None,2024-05-01 16h03.53.647816 -0400,
"(3, -3)",g,0.0,19,20,476,3,0.2337642080092337,,0.19838583300588652,0.19854983300319873,941335,001,2024-05-01_16h03.44.863,test2_run,2024.1.4,None,2024-05-01 16h03.53.647816 -0400,
"(0, 4)",p,0.0,19,21,477,16,0.2337642080092337,,0.19869137500063516,0.198853958005202,941335,001,2024-05-01_16h03.44.863,test2_run,2024.1.4,None,2024-05-01 16h03.53.647816 -0400,
"(3, -3)",p,0.0,19,22,478,19,0.2337642080092337,,0.1989942080108449,0.1991712080052821,941335,001,2024-05-01_16h03.44.863,test2_run,2024.1.4,None,2024-05-01 16h03.53.647816 -0400,
"(-3, 3)",g,0.0,19,23,479,7,0.2337642080092337,,0.19930791700608097,0.1994545420020586,941335,001,2024-05-01_16h03.44.863,test2_run,2024.1.4,None,2024-05-01 16h03.53.647816 -0400,
"(-3, -3)",g,0.0,20,0,480,5,0.2337642080092337,,0.19958950000000186,0.1997439580009086,941335,001,2024-05-01_16h03.44.863,test2_run,2024.1.4,None,2024-05-01 16h03.53.647816 -0400,
"(0, -4)",g,"(-3, 3)",20,1,481,12,0.2337642080092337,,0.19987762501114048,0.2000408750027418,941335,001,2024-05-01_16h03.44.863,test2_run,2024.1.4,None,2024-05-01 16h03.53.647816 -0400,
"(3, -3)",g,0.0,20,2,482,3,0.2337642080092337,,0.20018604199867696,0.20148058301128913,941335,001,2024-05-01_16h03.44.863,test2_run,2024.1.4,None,2024-05-01 16h03.53.647816 -0400,
"(-3, 3)",p,0.0,20,3,483,23,0.2337642080092337,,0.20162929200159851,0.20179079200897831,941335,001,2024-05-01_16h03.44.863,test2_run,2024.1.4,None,2024-05-01 16h03.53.647816 -0400,
"(-3, -3)",g,"(-4, 0)",20,4,484,13,0.2337642080092337,,0.20192725000379141,0.2020741669985,941335,001,2024-05-01_16h03.44.863,test2_run,2024.1.4,None,2024-05-01 16h03.53.647816 -0400,
"(0, -4)",p,0.0,20,5,485,20,0.2337642080092337,,0.2022017080016667,0.20234195800730959,941335,001,2024-05-01_16h03.44.863,test2_run,2024.1.4,None,2024-05-01 16h03.53.647816 -0400,
"(3, 3)",g,0.0,20,6,486,1,0.2337642080092337,,0.20248229200660717,0.2026255420059897,941335,001,2024-05-01_16h03.44.863,test2_run,2024.1.4,None,2024-05-01 16h03.53.647816 -0400,
"(3, 3)",g,"(0, -4)",20,7,487,9,0.2337642080092337,,0.20275537500856444,0.20289683299779426,941335,001,2024-05-01_16h03.44.863,test2_run,2024.1.4,None,2024-05-01 16h03.53.647816 -0400,
"(0, 4)",g,"(-3, -3)",20,8,488,8,0.2337642080092337,,0.2030306670058053,0.2031651670113206,941335,001,2024-05-01_16h03.44.863,test2_run,2024.1.4,None,2024-05-01 16h03.53.647816 -0400,
"(-3, 3)",g,0.0,20,9,489,7,0.2337642080092337,,0.2032965830003377,0.20347183301055338,941335,001,2024-05-01_16h03.44.863,test2_run,2024.1.4,None,2024-05-01 16h03.53.647816 -0400,
"(0, 4)",p,0.0,20,10,490,16,0.2337642080092337,,0.2036255420098314,0.20376179199956823,941335,001,2024-05-01_16h03.44.863,test2_run,2024.1.4,None,2024-05-01 16h03.53.647816 -0400,
"(3, -3)",g,"(4, 0)",20,11,491,11,0.2337642080092337,,0.20390254200901836,0.2040459580020979,941335,001,2024-05-01_16h03.44.863,test2_run,2024.1.4,None,2024-05-01 16h03.53.647816 -0400,
"(0, -4)",g,0.0,20,12,492,4,0.2337642080092337,,0.20417974999872968,0.20431966699834447,941335,001,2024-05-01_16h03.44.863,test2_run,2024.1.4,None,2024-05-01 16h03.53.647816 -0400,
"(-3, 3)",g,"(3, 3)",20,13,493,15,0.2337642080092337,,0.20445041700440925,0.20461850000720005,941335,001,2024-05-01_16h03.44.863,test2_run,2024.1.4,None,2024-05-01 16h03.53.647816 -0400,
"(0, 4)",g,0.0,20,14,494,0,0.2337642080092337,,0.20474804200057406,0.20489158300915733,941335,001,2024-05-01_16h03.44.863,test2_run,2024.1.4,None,2024-05-01 16h03.53.647816 -0400,
"(4, 0)",g,0.0,20,15,495,2,0.2337642080092337,,0.20502541700261645,0.20516695801052265,941335,001,2024-05-01_16h03.44.863,test2_run,2024.1.4,None,2024-05-01 16h03.53.647816 -0400,
"(3, 3)",p,0.0,20,16,496,17,0.2337642080092337,,0.2052922500006389,0.20543158300279174,941335,001,2024-05-01_16h03.44.863,test2_run,2024.1.4,None,2024-05-01 16h03.53.647816 -0400,
"(-4, 0)",g,0.0,20,17,497,6,0.2337642080092337,,0.20556979200046044,0.20570183300878853,941335,001,2024-05-01_16h03.44.863,test2_run,2024.1.4,None,2024-05-01 16h03.53.647816 -0400,
"(-4, 0)",g,"(3, -3)",20,18,498,14,0.2337642080092337,,0.2058294169983128,0.2059919169987552,941335,001,2024-05-01_16h03.44.863,test2_run,2024.1.4,None,2024-05-01 16h03.53.647816 -0400,
"(-3, -3)",p,0.0,20,19,499,21,0.2337642080092337,,0.2061238750029588,0.20628995800507255,941335,001,2024-05-01_16h03.44.863,test2_run,2024.1.4,None,2024-05-01 16h03.53.647816 -0400,
"(4, 0)",g,"(0, 4)",20,20,500,10,0.2337642080092337,,0.20643575000576675,0.2066031670110533,941335,001,2024-05-01_16h03.44.863,test2_run,2024.1.4,None,2024-05-01 16h03.53.647816 -0400,
"(-4, 0)",p,0.0,20,21,501,22,0.2337642080092337,,0.20674962500925176,0.20690391700190958,941335,001,2024-05-01_16h03.44.863,test2_run,2024.1.4,None,2024-05-01 16h03.53.647816 -0400,
"(4, 0)",p,0.0,20,22,502,18,0.2337642080092337,,0.2070377920026658,0.20719283301150426,941335,001,2024-05-01_16h03.44.863,test2_run,2024.1.4,None,2024-05-01 16h03.53.647816 -0400,
"(3, -3)",p,0.0,20,23,503,19,0.2337642080092337,,0.20732608300750144,0.20748066699889023,941335,001,2024-05-01_16h03.44.863,test2_run,2024.1.4,None,2024-05-01 16h03.53.647816 -0400,
"(-3, -3)",p,0.0,21,0,504,21,0.2337642080092337,,0.2076190000079805,0.20774937501118984,941335,001,2024-05-01_16h03.44.863,test2_run,2024.1.4,None,2024-05-01 16h03.53.647816 -0400,
"(4, 0)",g,"(0, 4)",21,1,505,10,0.2337642080092337,,0.20788358300342225,0.20804783300263807,941335,001,2024-05-01_16h03.44.863,test2_run,2024.1.4,None,2024-05-01 16h03.53.647816 -0400,
"(0, -4)",g,0.0,21,2,506,4,0.2337642080092337,,0.20817949999764096,0.2083420830022078,941335,001,2024-05-01_16h03.44.863,test2_run,2024.1.4,None,2024-05-01 16h03.53.647816 -0400,
"(-3, 3)",p,0.0,21,3,507,23,0.2337642080092337,,0.20847370800038334,0.20863337500486523,941335,001,2024-05-01_16h03.44.863,test2_run,2024.1.4,None,2024-05-01 16h03.53.647816 -0400,
"(-3, 3)",g,0.0,21,4,508,7,0.2337642080092337,,0.20877041699714027,0.20894604201021139,941335,001,2024-05-01_16h03.44.863,test2_run,2024.1.4,None,2024-05-01 16h03.53.647816 -0400,
"(-3, -3)",g,0.0,21,5,509,5,0.2337642080092337,,0.20908075000625104,0.2092302500095684,941335,001,2024-05-01_16h03.44.863,test2_run,2024.1.4,None,2024-05-01 16h03.53.647816 -0400,
"(3, -3)",g,0.0,21,6,510,3,0.2337642080092337,,0.2093630830058828,0.20952850001049228,941335,001,2024-05-01_16h03.44.863,test2_run,2024.1.4,None,2024-05-01 16h03.53.647816 -0400,
"(3, -3)",g,"(4, 0)",21,7,511,11,0.2337642080092337,,0.2096747920004418,0.20985829200071748,941335,001,2024-05-01_16h03.44.863,test2_run,2024.1.4,None,2024-05-01 16h03.53.647816 -0400,
"(-3, -3)",g,"(-4, 0)",21,8,512,13,0.2337642080092337,,0.2099894580023829,0.21014162500796374,941335,001,2024-05-01_16h03.44.863,test2_run,2024.1.4,None,2024-05-01 16h03.53.647816 -0400,
"(-4, 0)",g,0.0,21,9,513,6,0.2337642080092337,,0.2102783750015078,0.21044350000738632,941335,001,2024-05-01_16h03.44.863,test2_run,2024.1.4,None,2024-05-01 16h03.53.647816 -0400,
"(0, 4)",g,0.0,21,10,514,0,0.2337642080092337,,0.21057637500052806,0.21073358300782274,941335,001,2024-05-01_16h03.44.863,test2_run,2024.1.4,None,2024-05-01 16h03.53.647816 -0400,
"(0, 4)",p,0.0,21,11,515,16,0.2337642080092337,,0.21087049999914598,0.21101629199984018,941335,001,2024-05-01_16h03.44.863,test2_run,2024.1.4,None,2024-05-01 16h03.53.647816 -0400,
"(0, -4)",g,"(-3, 3)",21,12,516,12,0.2337642080092337,,0.21114954201038927,0.21129512500192504,941335,001,2024-05-01_16h03.44.863,test2_run,2024.1.4,None,2024-05-01 16h03.53.647816 -0400,
"(4, 0)",g,0.0,21,13,517,2,0.2337642080092337,,0.21142716699978337,0.21156620800320525,941335,001,2024-05-01_16h03.44.863,test2_run,2024.1.4,None,2024-05-01 16h03.53.647816 -0400,
"(3, 3)",g,0.0,21,14,518,1,0.2337642080092337,,0.2116995000105817,0.21186858300643507,941335,001,2024-05-01_16h03.44.863,test2_run,2024.1.4,None,2024-05-01 16h03.53.647816 -0400,
"(3, 3)",p,0.0,21,15,519,17,0.2337642080092337,,0.21200970800418872,0.21215662499889731,941335,001,2024-05-01_16h03.44.863,test2_run,2024.1.4,None,2024-05-01 16h03.53.647816 -0400,
"(-4, 0)",g,"(3, -3)",21,16,520,14,0.2337642080092337,,0.2122897500084946,0.21244291700713802,941335,001,2024-05-01_16h03.44.863,test2_run,2024.1.4,None,2024-05-01 16h03.53.647816 -0400,
"(3, 3)",g,"(0, -4)",21,17,521,9,0.2337642080092337,,0.212583166998229,0.21272766700712964,941335,001,2024-05-01_16h03.44.863,test2_run,2024.1.4,None,2024-05-01 16h03.53.647816 -0400,
"(0, 4)",g,"(-3, -3)",21,18,522,8,0.2337642080092337,,0.21286650000547525,0.21301962500729132,941335,001,2024-05-01_16h03.44.863,test2_run,2024.1.4,None,2024-05-01 16h03.53.647816 -0400,
"(-4, 0)",p,0.0,21,19,523,22,0.2337642080092337,,0.21315783300087787,0.21330604200193193,941335,001,2024-05-01_16h03.44.863,test2_run,2024.1.4,None,2024-05-01 16h03.53.647816 -0400,
"(0, -4)",p,0.0,21,20,524,20,0.2337642080092337,,0.2134379580093082,0.21358833300473634,941335,001,2024-05-01_16h03.44.863,test2_run,2024.1.4,None,2024-05-01 16h03.53.647816 -0400,
"(3, -3)",p,0.0,21,21,525,19,0.2337642080092337,,0.21372862500720657,0.2138747080025496,941335,001,2024-05-01_16h03.44.863,test2_run,2024.1.4,None,2024-05-01 16h03.53.647816 -0400,
"(-3, 3)",g,"(3, 3)",21,22,526,15,0.2337642080092337,,0.21401354200497735,0.21417904199915938,941335,001,2024-05-01_16h03.44.863,test2_run,2024.1.4,None,2024-05-01 16h03.53.647816 -0400,
"(4, 0)",p,0.0,21,23,527,18,0.2337642080092337,,0.2143104170099832,0.214456000001519,941335,001,2024-05-01_16h03.44.863,test2_run,2024.1.4,None,2024-05-01 16h03.53.647816 -0400,
"(-3, -3)",g,0.0,22,0,528,5,0.2337642080092337,,0.21458687500853557,0.21474733301147353,941335,001,2024-05-01_16h03.44.863,test2_run,2024.1.4,None,2024-05-01 16h03.53.647816 -0400,
"(0, -4)",g,"(-3, 3)",22,1,529,12,0.2337642080092337,,0.2148782080039382,0.2150644580106018,941335,001,2024-05-01_16h03.44.863,test2_run,2024.1.4,None,2024-05-01 16h03.53.647816 -0400,
"(4, 0)",g,0.0,22,2,530,2,0.2337642080092337,,0.2151992080034688,0.21536441700300202,941335,001,2024-05-01_16h03.44.863,test2_run,2024.1.4,None,2024-05-01 16h03.53.647816 -0400,
"(-3, 3)",g,"(3, 3)",22,3,531,15,0.2337642080092337,,0.21549970800697338,0.21564712500548922,941335,001,2024-05-01_16h03.44.863,test2_run,2024.1.4,None,2024-05-01 16h03.53.647816 -0400,
"(0, -4)",p,0.0,22,4,532,20,0.2337642080092337,,0.21577833300398197,0.21593591700366233,941335,001,2024-05-01_16h03.44.863,test2_run,2024.1.4,None,2024-05-01 16h03.53.647816 -0400,
"(-3, -3)",g,"(-4, 0)",22,5,533,13,0.2337642080092337,,0.21607500000391155,0.21622741701139603,941335,001,2024-05-01_16h03.44.863,test2_run,2024.1.4,None,2024-05-01 16h03.53.647816 -0400,
"(-4, 0)",p,0.0,22,6,534,22,0.2337642080092337,,0.21635804200195707,0.21651041699806228,941335,001,2024-05-01_16h03.44.863,test2_run,2024.1.4,None,2024-05-01 16h03.53.647816 -0400,
"(-3, -3)",p,0.0,22,7,535,21,0.2337642080092337,,0.21664816699922085,0.21681679200264625,941335,001,2024-05-01_16h03.44.863,test2_run,2024.1.4,None,2024-05-01 16h03.53.647816 -0400,
"(-3, 3)",g,0.0,22,8,536,7,0.2337642080092337,,0.21694812500209082,0.21714675000112038,941335,001,2024-05-01_16h03.44.863,test2_run,2024.1.4,None,2024-05-01 16h03.53.647816 -0400,
"(3, 3)",g,0.0,22,9,537,1,0.2337642080092337,,0.21728687500581145,0.21744558300997596,941335,001,2024-05-01_16h03.44.863,test2_run,2024.1.4,None,2024-05-01 16h03.53.647816 -0400,
"(3, 3)",g,"(0, -4)",22,10,538,9,0.2337642080092337,,0.2175852080108598,0.21773025000584312,941335,001,2024-05-01_16h03.44.863,test2_run,2024.1.4,None,2024-05-01 16h03.53.647816 -0400,
"(3, -3)",p,0.0,22,11,539,19,0.2337642080092337,,0.21786175000306685,0.21802700000989717,941335,001,2024-05-01_16h03.44.863,test2_run,2024.1.4,None,2024-05-01 16h03.53.647816 -0400,
"(3, 3)",p,0.0,22,12,540,17,0.2337642080092337,,0.21816862501145806,0.2183343750075437,941335,001,2024-05-01_16h03.44.863,test2_run,2024.1.4,None,2024-05-01 16h03.53.647816 -0400,
"(0, -4)",g,0.0,22,13,541,4,0.2337642080092337,,0.21846866700798273,0.21863504200882744,941335,001,2024-05-01_16h03.44.863,test2_run,2024.1.4,None,2024-05-01 16h03.53.647816 -0400,
"(4, 0)",p,0.0,22,14,542,18,0.2337642080092337,,0.21876550000160933,0.21893524999904912,941335,001,2024-05-01_16h03.44.863,test2_run,2024.1.4,None,2024-05-01 16h03.53.647816 -0400,
"(0, 4)",g,0.0,22,15,543,0,0.2337642080092337,,0.21906591700098943,0.2192582499992568,941335,001,2024-05-01_16h03.44.863,test2_run,2024.1.4,None,2024-05-01 16h03.53.647816 -0400,
"(0, 4)",g,"(-3, -3)",22,16,544,8,0.2337642080092337,,0.21939316700445488,0.219539583005826,941335,001,2024-05-01_16h03.44.863,test2_run,2024.1.4,None,2024-05-01 16h03.53.647816 -0400,
"(-4, 0)",g,0.0,22,17,545,6,0.2337642080092337,,0.21967108300304972,0.21983995800837874,941335,001,2024-05-01_16h03.44.863,test2_run,2024.1.4,None,2024-05-01 16h03.53.647816 -0400,
"(4, 0)",g,"(0, 4)",22,18,546,10,0.2337642080092337,,0.2199718330084579,0.2201289579970762,941335,001,2024-05-01_16h03.44.863,test2_run,2024.1.4,None,2024-05-01 16h03.53.647816 -0400,
"(3, -3)",g,0.0,22,19,547,3,0.2337642080092337,,0.22026720800204203,0.22043029199994635,941335,001,2024-05-01_16h03.44.863,test2_run,2024.1.4,None,2024-05-01 16h03.53.647816 -0400,
"(-3, 3)",p,0.0,22,20,548,23,0.2337642080092337,,0.22056391699879896,0.22072770800150465,941335,001,2024-05-01_16h03.44.863,test2_run,2024.1.4,None,2024-05-01 16h03.53.647816 -0400,
