triangle_pos,triangle_color,pink_circle_pos,test_trial_before_experiment.thisRepN,test_trial_before_experiment.thisTrialN,test_trial_before_experiment.thisN,test_trial_before_experiment.thisIndex,trials.thisRepN,trials.thisTrialN,trials.thisN,trials.thisIndex,thisRow.t,notes,Welcome_Page.started,textWelcomePage.started,key_resp.started,Welcome_Page.stopped,key_resp.keys,key_resp.rt,key_resp.duration,Test_Trial_routine_instructions.started,text.started,key_resp_3.started,Test_Trial_routine_instructions.stopped,key_resp_3.keys,key_resp_3.rt,key_resp_3.duration,test_trial.started,test_trial.stopped,Actual_Trial_Instructions.started,actual_trial_intructions.started,key_resp_4.started,Actual_Trial_Instructions.stopped,key_resp_4.keys,key_resp_4.rt,key_resp_4.duration,code_attempt.started,code_attempt.stopped,End_Routine.started,End_Text.started,key_resp_2.started,End_Routine.stopped,key_resp_2.keys,key_resp_2.rt,key_resp_2.duration,participant,session,date,expName,psychopyVersion,frameRate,expStart,
,,,,,,,,,,,,,0.023737584007903934,0.03846075001638383,1.9949415000155568,4.122197292046621,space,2.1200719590415247,None,,,,,,,,,,,,,,,,,,,,,,,,,,943340,001,2024-05-07_21h25.39.700,creatingimagesNEW,2024.1.4,None,2024-05-07 21h25.46.517593 -0400,
,,,,,,,,,,,,,,,,,,,,4.122232916997746,4.143148917006329,5.120717542013153,5.405087666993495,space,0.27572700002929196,None,,,,,,,,,,,,,,,,,,,943340,001,2024-05-07_21h25.39.700,creatingimagesNEW,2024.1.4,None,2024-05-07 21h25.46.517593 -0400,
"(-0.1875, -0.1875)",p,0.0,0,0,0,4,,,,,5.452456334023736,,,,,,,,,,,,,,,,5.426831209042575,6.520830625027884,,,,,,,,,,,,,,,,,943340,001,2024-05-07_21h25.39.700,creatingimagesNEW,2024.1.4,None,2024-05-07 21h25.46.517593 -0400,
"(-0.25, 0)",p,0.0,0,1,1,5,,,,,6.5283152920310386,,,,,,,,,,,,,,,,6.521006916998886,7.690560750022996,,,,,,,,,,,,,,,,,943340,001,2024-05-07_21h25.39.700,creatingimagesNEW,2024.1.4,None,2024-05-07 21h25.46.517593 -0400,
"(0.25, 0)",g,0.0,0,2,2,2,,,,,7.6978100000415,,,,,,,,,,,,,,,,7.690740167046897,8.659934875031468,,,,,,,,,,,,,,,,,943340,001,2024-05-07_21h25.39.700,creatingimagesNEW,2024.1.4,None,2024-05-07 21h25.46.517593 -0400,
"(-0.25, 0)",g,"(0.25, 0)",0,3,3,8,,,,,8.667529750033282,,,,,,,,,,,,,,,,8.660106750030536,9.929497834003996,,,,,,,,,,,,,,,,,943340,001,2024-05-07_21h25.39.700,creatingimagesNEW,2024.1.4,None,2024-05-07 21h25.46.517593 -0400,
"(0.1875, 0.1875)",g,0.0,0,4,4,1,,,,,9.937291209003888,,,,,,,,,,,,,,,,9.929693334037438,11.095482917036861,,,,,,,,,,,,,,,,,943340,001,2024-05-07_21h25.39.700,creatingimagesNEW,2024.1.4,None,2024-05-07 21h25.46.517593 -0400,
"(0, 0.25)",g,0.0,0,5,5,0,,,,,11.11041862500133,,,,,,,,,,,,,,,,11.09565625002142,12.273402209044434,,,,,,,,,,,,,,,,,943340,001,2024-05-07_21h25.39.700,creatingimagesNEW,2024.1.4,None,2024-05-07 21h25.46.517593 -0400,
"(-0.1875, 0.1875)",g,"(-0.25, 0)",0,6,6,7,,,,,12.280900500016287,,,,,,,,,,,,,,,,12.273566292016767,13.443699750001542,,,,,,,,,,,,,,,,,943340,001,2024-05-07_21h25.39.700,creatingimagesNEW,2024.1.4,None,2024-05-07 21h25.46.517593 -0400,
"(0.1875, -0.1875)",p,0.0,0,7,7,3,,,,,13.451398709032219,,,,,,,,,,,,,,,,13.443874167045578,14.514292834035587,,,,,,,,,,,,,,,,,943340,001,2024-05-07_21h25.39.700,creatingimagesNEW,2024.1.4,None,2024-05-07 21h25.46.517593 -0400,
"(0.25, 0)",g,"(-0.1875, -0.1875)",0,8,8,6,,,,,14.522025542042684,,,,,,,,,,,,,,,,14.51445787504781,15.684419166995212,,,,,,,,,,,,,,,,,943340,001,2024-05-07_21h25.39.700,creatingimagesNEW,2024.1.4,None,2024-05-07 21h25.46.517593 -0400,
"(-0.25, 0)",g,"(0.25, 0)",1,0,9,8,,,,,15.691916542011313,,,,,,,,,,,,,,,,15.684577959007584,16.85375833400758,,,,,,,,,,,,,,,,,943340,001,2024-05-07_21h25.39.700,creatingimagesNEW,2024.1.4,None,2024-05-07 21h25.46.517593 -0400,
"(0.1875, 0.1875)",g,0.0,1,1,10,1,,,,,16.861211125040427,,,,,,,,,,,,,,,,16.85391816700576,18.1242991250474,,,,,,,,,,,,,,,,,943340,001,2024-05-07_21h25.39.700,creatingimagesNEW,2024.1.4,None,2024-05-07 21h25.46.517593 -0400,
"(-0.1875, 0.1875)",g,"(-0.25, 0)",1,2,11,7,,,,,18.131772459018975,,,,,,,,,,,,,,,,18.124455917044543,19.294270750018768,,,,,,,,,,,,,,,,,943340,001,2024-05-07_21h25.39.700,creatingimagesNEW,2024.1.4,None,2024-05-07 21h25.46.517593 -0400,
"(-0.25, 0)",p,0.0,1,3,12,5,,,,,19.301478042034432,,,,,,,,,,,,,,,,19.294428916997276,20.4641726250411,,,,,,,,,,,,,,,,,943340,001,2024-05-07_21h25.39.700,creatingimagesNEW,2024.1.4,None,2024-05-07 21h25.46.517593 -0400,
"(0, 0.25)",g,0.0,1,4,13,0,,,,,20.471352334017865,,,,,,,,,,,,,,,,20.464336542005185,21.432440417003818,,,,,,,,,,,,,,,,,943340,001,2024-05-07_21h25.39.700,creatingimagesNEW,2024.1.4,None,2024-05-07 21h25.46.517593 -0400,
"(0.1875, -0.1875)",p,0.0,1,5,14,3,,,,,21.43966862501111,,,,,,,,,,,,,,,,21.432597917038947,22.401730292011052,,,,,,,,,,,,,,,,,943340,001,2024-05-07_21h25.39.700,creatingimagesNEW,2024.1.4,None,2024-05-07 21h25.46.517593 -0400,
"(-0.1875, -0.1875)",p,0.0,1,6,15,4,,,,,22.409061667043716,,,,,,,,,,,,,,,,22.40189229202224,23.471020917000715,,,,,,,,,,,,,,,,,943340,001,2024-05-07_21h25.39.700,creatingimagesNEW,2024.1.4,None,2024-05-07 21h25.46.517593 -0400,
"(0.25, 0)",g,0.0,1,7,16,2,,,,,23.478568542050198,,,,,,,,,,,,,,,,23.471188334049657,24.640441666997503,,,,,,,,,,,,,,,,,943340,001,2024-05-07_21h25.39.700,creatingimagesNEW,2024.1.4,None,2024-05-07 21h25.46.517593 -0400,
"(0.25, 0)",g,"(-0.1875, -0.1875)",1,8,17,6,,,,,24.648065709043294,,,,,,,,,,,,,,,,24.640608500048984,25.71053895901423,,,,,,,,,,,,,,,,,943340,001,2024-05-07_21h25.39.700,creatingimagesNEW,2024.1.4,None,2024-05-07 21h25.46.517593 -0400,
"(-0.1875, -0.1875)",p,0.0,2,0,18,4,,,,,25.717705000017304,,,,,,,,,,,,,,,,25.710694917012006,26.7796003750409,,,,,,,,,,,,,,,,,943340,001,2024-05-07_21h25.39.700,creatingimagesNEW,2024.1.4,None,2024-05-07 21h25.46.517593 -0400,
"(-0.25, 0)",p,0.0,2,1,19,5,,,,,26.788377709046472,,,,,,,,,,,,,,,,26.779749959008768,27.85185137501685,,,,,,,,,,,,,,,,,943340,001,2024-05-07_21h25.39.700,creatingimagesNEW,2024.1.4,None,2024-05-07 21h25.46.517593 -0400,
"(-0.25, 0)",g,"(0.25, 0)",2,2,20,8,,,,,27.859401124995202,,,,,,,,,,,,,,,,27.85200262500439,29.522552959038876,,,,,,,,,,,,,,,,,943340,001,2024-05-07_21h25.39.700,creatingimagesNEW,2024.1.4,None,2024-05-07 21h25.46.517593 -0400,
"(0.1875, -0.1875)",p,0.0,2,3,21,3,,,,,29.532592292001937,,,,,,,,,,,,,,,,29.52271049999399,30.59497795900097,,,,,,,,,,,,,,,,,943340,001,2024-05-07_21h25.39.700,creatingimagesNEW,2024.1.4,None,2024-05-07 21h25.46.517593 -0400,
"(0.25, 0)",g,"(-0.1875, -0.1875)",2,4,22,6,,,,,30.60223150003003,,,,,,,,,,,,,,,,30.595138584030792,31.56441445904784,,,,,,,,,,,,,,,,,943340,001,2024-05-07_21h25.39.700,creatingimagesNEW,2024.1.4,None,2024-05-07 21h25.46.517593 -0400,
"(0.25, 0)",g,0.0,2,5,23,2,,,,,31.571741249994375,,,,,,,,,,,,,,,,31.56457483401755,33.03519345901441,,,,,,,,,,,,,,,,,943340,001,2024-05-07_21h25.39.700,creatingimagesNEW,2024.1.4,None,2024-05-07 21h25.46.517593 -0400,
"(-0.1875, 0.1875)",g,"(-0.25, 0)",2,6,24,7,,,,,33.04316420899704,,,,,,,,,,,,,,,,33.03536100004567,34.10573737503728,,,,,,,,,,,,,,,,,943340,001,2024-05-07_21h25.39.700,creatingimagesNEW,2024.1.4,None,2024-05-07 21h25.46.517593 -0400,
"(0.1875, 0.1875)",g,0.0,2,7,25,1,,,,,34.113122584007215,,,,,,,,,,,,,,,,34.105898584006354,35.1756511250278,,,,,,,,,,,,,,,,,943340,001,2024-05-07_21h25.39.700,creatingimagesNEW,2024.1.4,None,2024-05-07 21h25.46.517593 -0400,
"(0, 0.25)",g,0.0,2,8,26,0,,,,,35.18275358399842,,,,,,,,,,,,,,,,35.17580900003668,36.14600825001253,,,,,,,,,,,,,,,,,943340,001,2024-05-07_21h25.39.700,creatingimagesNEW,2024.1.4,None,2024-05-07 21h25.46.517593 -0400,
,,,,,,,,,,,,,,,,,,,,,,,,,,,,,36.14608370902715,36.15386312501505,37.13844250002876,48.415681417041924,space,11.271019459003583,None,,,,,,,,,,943340,001,2024-05-07_21h25.39.700,creatingimagesNEW,2024.1.4,None,2024-05-07 21h25.46.517593 -0400,
"(0, 0.25)",g,"(-0.1875, -0.1875)",,,,,0,0,0,8,48.496877625002526,,,,,,,,,,,,,,,,,,,,,,,,,48.47527966700727,49.5597083340399,,,,,,,,943340,001,2024-05-07_21h25.39.700,creatingimagesNEW,2024.1.4,None,2024-05-07 21h25.46.517593 -0400,
"(-0.1875, 0.1875)",g,0.0,,,,,0,1,1,7,49.56681325001409,,,,,,,,,,,,,,,,,,,,,,,,,49.55985983402934,51.02950395899825,,,,,,,,943340,001,2024-05-07_21h25.39.700,creatingimagesNEW,2024.1.4,None,2024-05-07 21h25.46.517593 -0400,
"(0.1875, -0.1875)",g,"(0.25, 0)",,,,,0,2,2,11,51.040099125006236,,,,,,,,,,,,,,,,,,,,,,,,,51.02968341700034,52.60372950002784,,,,,,,,943340,001,2024-05-07_21h25.39.700,creatingimagesNEW,2024.1.4,None,2024-05-07 21h25.46.517593 -0400,
"(0.1875, -0.1875)",g,0.0,,,,,0,3,3,3,52.6154977499973,,,,,,,,,,,,,,,,,,,,,,,,,52.60389395902166,54.378982416994404,,,,,,,,943340,001,2024-05-07_21h25.39.700,creatingimagesNEW,2024.1.4,None,2024-05-07 21h25.46.517593 -0400,
"(0.25, 0)",g,0.0,,,,,0,4,4,2,54.3888201250229,,,,,,,,,,,,,,,,,,,,,,,,,54.37915108399466,56.079574750037864,,,,,,,,943340,001,2024-05-07_21h25.39.700,creatingimagesNEW,2024.1.4,None,2024-05-07 21h25.46.517593 -0400,
"(0.25, 0)",g,"(0, 0.25)",,,,,0,5,5,10,56.089552250050474,,,,,,,,,,,,,,,,,,,,,,,,,56.07973925000988,57.75315466703614,,,,,,,,943340,001,2024-05-07_21h25.39.700,creatingimagesNEW,2024.1.4,None,2024-05-07 21h25.46.517593 -0400,
"(0, 0.25)",p,0.0,,,,,0,6,6,16,57.76326737500494,,,,,,,,,,,,,,,,,,,,,,,,,57.753315625013784,58.926314417039976,,,,,,,,943340,001,2024-05-07_21h25.39.700,creatingimagesNEW,2024.1.4,None,2024-05-07 21h25.46.517593 -0400,
"(0, 0.25)",g,0.0,,,,,0,7,7,0,58.933762250002474,,,,,,,,,,,,,,,,,,,,,,,,,58.92647691699676,60.1966679590405,,,,,,,,943340,001,2024-05-07_21h25.39.700,creatingimagesNEW,2024.1.4,None,2024-05-07 21h25.46.517593 -0400,
"(-0.1875, 0.1875)",g,"(0.1875, 0.1875)",,,,,0,8,8,15,60.20432854205137,,,,,,,,,,,,,,,,,,,,,,,,,60.19682962499792,61.751984250033274,,,,,,,,943340,001,2024-05-07_21h25.39.700,creatingimagesNEW,2024.1.4,None,2024-05-07 21h25.46.517593 -0400,
"(0, -0.25)",g,"(-0.1875, 0.1875)",,,,,0,9,9,12,61.76320491702063,,,,,,,,,,,,,,,,,,,,,,,,,61.752218209032435,63.027969417045824,,,,,,,,943340,001,2024-05-07_21h25.39.700,creatingimagesNEW,2024.1.4,None,2024-05-07 21h25.46.517593 -0400,
"(0.1875, 0.1875)",g,0.0,,,,,0,10,10,1,63.036067875043955,,,,,,,,,,,,,,,,,,,,,,,,,63.028296042000875,64.29908700002125,,,,,,,,943340,001,2024-05-07_21h25.39.700,creatingimagesNEW,2024.1.4,None,2024-05-07 21h25.46.517593 -0400,
"(0.1875, 0.1875)",p,0.0,,,,,0,11,11,17,64.30667341704248,,,,,,,,,,,,,,,,,,,,,,,,,64.29925920901587,65.86996441701194,,,,,,,,943340,001,2024-05-07_21h25.39.700,creatingimagesNEW,2024.1.4,None,2024-05-07 21h25.46.517593 -0400,
"(0, -0.25)",g,0.0,,,,,0,12,12,4,65.88009766704636,,,,,,,,,,,,,,,,,,,,,,,,,65.87012750003487,67.04327983403346,,,,,,,,943340,001,2024-05-07_21h25.39.700,creatingimagesNEW,2024.1.4,None,2024-05-07 21h25.46.517593 -0400,
"(-0.25, 0)",g,0.0,,,,,0,13,13,6,67.05099162500119,,,,,,,,,,,,,,,,,,,,,,,,,67.0434485420119,68.11449375003576,,,,,,,,943340,001,2024-05-07_21h25.39.700,creatingimagesNEW,2024.1.4,None,2024-05-07 21h25.46.517593 -0400,
"(0.25, 0)",p,0.0,,,,,0,14,14,18,68.1217287920299,,,,,,,,,,,,,,,,,,,,,,,,,68.11465666705044,69.28512125002453,,,,,,,,943340,001,2024-05-07_21h25.39.700,creatingimagesNEW,2024.1.4,None,2024-05-07 21h25.46.517593 -0400,
"(-0.1875, -0.1875)",p,0.0,,,,,0,15,15,21,69.29249487502966,,,,,,,,,,,,,,,,,,,,,,,,,69.28529220900964,70.35529362503439,,,,,,,,943340,001,2024-05-07_21h25.39.700,creatingimagesNEW,2024.1.4,None,2024-05-07 21h25.46.517593 -0400,
"(-0.25, 0)",p,0.0,,,,,0,16,16,22,70.36267537501408,,,,,,,,,,,,,,,,,,,,,,,,,70.35546525003156,71.4265116250026,,,,,,,,943340,001,2024-05-07_21h25.39.700,creatingimagesNEW,2024.1.4,None,2024-05-07 21h25.46.517593 -0400,
"(-0.1875, -0.1875)",g,"(-0.25, 0)",,,,,0,17,17,13,71.43389675003709,,,,,,,,,,,,,,,,,,,,,,,,,71.42672254203353,72.59706258401275,,,,,,,,943340,001,2024-05-07_21h25.39.700,creatingimagesNEW,2024.1.4,None,2024-05-07 21h25.46.517593 -0400,
"(-0.1875, 0.1875)",p,0.0,,,,,0,18,18,23,72.60656433401164,,,,,,,,,,,,,,,,,,,,,,,,,72.59743483399507,73.79027129203314,,,,,,,,943340,001,2024-05-07_21h25.39.700,creatingimagesNEW,2024.1.4,None,2024-05-07 21h25.46.517593 -0400,
"(-0.25, 0)",g,"(0.1875, -0.1875)",,,,,0,19,19,14,73.80648812500294,,,,,,,,,,,,,,,,,,,,,,,,,73.79317995900055,75.27188337501138,,,,,,,,943340,001,2024-05-07_21h25.39.700,creatingimagesNEW,2024.1.4,None,2024-05-07 21h25.46.517593 -0400,
"(0.1875, -0.1875)",p,0.0,,,,,0,20,20,19,75.2821063339943,,,,,,,,,,,,,,,,,,,,,,,,,75.2720510000363,76.6457094590296,,,,,,,,943340,001,2024-05-07_21h25.39.700,creatingimagesNEW,2024.1.4,None,2024-05-07 21h25.46.517593 -0400,
"(0, -0.25)",p,0.0,,,,,0,21,21,20,76.6532237920328,,,,,,,,,,,,,,,,,,,,,,,,,76.64589266700204,77.61725587502588,,,,,,,,943340,001,2024-05-07_21h25.39.700,creatingimagesNEW,2024.1.4,None,2024-05-07 21h25.46.517593 -0400,
"(0.1875, 0.1875)",g,"(0, -0.25)",,,,,0,22,22,9,77.62452229199698,,,,,,,,,,,,,,,,,,,,,,,,,77.61741850001272,78.68715700000757,,,,,,,,943340,001,2024-05-07_21h25.39.700,creatingimagesNEW,2024.1.4,None,2024-05-07 21h25.46.517593 -0400,
"(-0.1875, -0.1875)",g,0.0,,,,,0,23,23,5,78.69441620900761,,,,,,,,,,,,,,,,,,,,,,,,,78.68731679202756,79.75697741704062,,,,,,,,943340,001,2024-05-07_21h25.39.700,creatingimagesNEW,2024.1.4,None,2024-05-07 21h25.46.517593 -0400,
"(0.1875, 0.1875)",p,0.0,,,,,1,0,24,17,79.76419212500332,,,,,,,,,,,,,,,,,,,,,,,,,79.75713708403055,80.82662070903461,,,,,,,,943340,001,2024-05-07_21h25.39.700,creatingimagesNEW,2024.1.4,None,2024-05-07 21h25.46.517593 -0400,
"(0, -0.25)",p,0.0,,,,,1,1,25,20,80.83428970904788,,,,,,,,,,,,,,,,,,,,,,,,,80.82678779202979,81.89732683403417,,,,,,,,943340,001,2024-05-07_21h25.39.700,creatingimagesNEW,2024.1.4,None,2024-05-07 21h25.46.517593 -0400,
"(0.25, 0)",p,0.0,,,,,1,2,26,18,81.90446354204323,,,,,,,,,,,,,,,,,,,,,,,,,81.89749979204498,82.96738737501437,,,,,,,,943340,001,2024-05-07_21h25.39.700,creatingimagesNEW,2024.1.4,None,2024-05-07 21h25.46.517593 -0400,
"(0, 0.25)",g,"(-0.1875, -0.1875)",,,,,1,3,27,8,82.97464862500783,,,,,,,,,,,,,,,,,,,,,,,,,82.9675509170047,84.4376143750269,,,,,,,,943340,001,2024-05-07_21h25.39.700,creatingimagesNEW,2024.1.4,None,2024-05-07 21h25.46.517593 -0400,
"(-0.1875, -0.1875)",p,0.0,,,,,1,4,28,21,84.44623779202811,,,,,,,,,,,,,,,,,,,,,,,,,84.43777529202634,86.01021270902129,,,,,,,,943340,001,2024-05-07_21h25.39.700,creatingimagesNEW,2024.1.4,None,2024-05-07 21h25.46.517593 -0400,
"(-0.1875, 0.1875)",g,"(0.1875, 0.1875)",,,,,1,5,29,15,86.02003220899496,,,,,,,,,,,,,,,,,,,,,,,,,86.01037870900473,87.78351637499873,,,,,,,,943340,001,2024-05-07_21h25.39.700,creatingimagesNEW,2024.1.4,None,2024-05-07 21h25.46.517593 -0400,
"(0.1875, -0.1875)",g,0.0,,,,,1,6,30,3,87.79383129201597,,,,,,,,,,,,,,,,,,,,,,,,,87.78367958404124,89.2576417500386,,,,,,,,943340,001,2024-05-07_21h25.39.700,creatingimagesNEW,2024.1.4,None,2024-05-07 21h25.46.517593 -0400,
"(-0.25, 0)",g,0.0,,,,,1,7,31,6,89.26771362504223,,,,,,,,,,,,,,,,,,,,,,,,,89.2578042090172,90.23095625004498,,,,,,,,943340,001,2024-05-07_21h25.39.700,creatingimagesNEW,2024.1.4,None,2024-05-07 21h25.46.517593 -0400,
"(0.1875, 0.1875)",g,0.0,,,,,1,8,32,1,90.23825383401709,,,,,,,,,,,,,,,,,,,,,,,,,90.23112650000257,91.30079591704998,,,,,,,,943340,001,2024-05-07_21h25.39.700,creatingimagesNEW,2024.1.4,None,2024-05-07 21h25.46.517593 -0400,
"(-0.25, 0)",p,0.0,,,,,1,9,33,22,91.30839620903134,,,,,,,,,,,,,,,,,,,,,,,,,91.30096179200336,92.3708642499987,,,,,,,,943340,001,2024-05-07_21h25.39.700,creatingimagesNEW,2024.1.4,None,2024-05-07 21h25.46.517593 -0400,
"(-0.1875, -0.1875)",g,0.0,,,,,1,10,34,5,92.37839441699907,,,,,,,,,,,,,,,,,,,,,,,,,92.37104245903902,93.64197770901956,,,,,,,,943340,001,2024-05-07_21h25.39.700,creatingimagesNEW,2024.1.4,None,2024-05-07 21h25.46.517593 -0400,
"(0, -0.25)",g,"(-0.1875, 0.1875)",,,,,1,11,35,12,93.65241545904428,,,,,,,,,,,,,,,,,,,,,,,,,93.64266650000354,96.21727854199708,,,,,,,,943340,001,2024-05-07_21h25.39.700,creatingimagesNEW,2024.1.4,None,2024-05-07 21h25.46.517593 -0400,
"(-0.1875, 0.1875)",p,0.0,,,,,1,12,36,23,96.22764166700654,,,,,,,,,,,,,,,,,,,,,,,,,96.21744454203872,97.59077987499768,,,,,,,,943340,001,2024-05-07_21h25.39.700,creatingimagesNEW,2024.1.4,None,2024-05-07 21h25.46.517593 -0400,
"(0.25, 0)",g,0.0,,,,,1,13,37,2,97.59819375001825,,,,,,,,,,,,,,,,,,,,,,,,,97.59094070905121,98.66145475005032,,,,,,,,943340,001,2024-05-07_21h25.39.700,creatingimagesNEW,2024.1.4,None,2024-05-07 21h25.46.517593 -0400,
"(0.1875, -0.1875)",g,"(0.25, 0)",,,,,1,14,38,11,98.6689873340074,,,,,,,,,,,,,,,,,,,,,,,,,98.66162475000601,100.0345588750206,,,,,,,,943340,001,2024-05-07_21h25.39.700,creatingimagesNEW,2024.1.4,None,2024-05-07 21h25.46.517593 -0400,
"(0, -0.25)",g,0.0,,,,,1,15,39,4,100.04490195901599,,,,,,,,,,,,,,,,,,,,,,,,,100.0347262090072,101.2077204590314,,,,,,,,943340,001,2024-05-07_21h25.39.700,creatingimagesNEW,2024.1.4,None,2024-05-07 21h25.46.517593 -0400,
"(0, 0.25)",g,0.0,,,,,1,16,40,0,101.21501158404863,,,,,,,,,,,,,,,,,,,,,,,,,101.20788954204181,102.07749683404109,,,,,,,,943340,001,2024-05-07_21h25.39.700,creatingimagesNEW,2024.1.4,None,2024-05-07 21h25.46.517593 -0400,
"(0.25, 0)",g,"(0, 0.25)",,,,,1,17,41,10,102.08527004200732,,,,,,,,,,,,,,,,,,,,,,,,,102.07766558404546,103.14780704199802,,,,,,,,943340,001,2024-05-07_21h25.39.700,creatingimagesNEW,2024.1.4,None,2024-05-07 21h25.46.517593 -0400,
"(0.1875, 0.1875)",g,"(0, -0.25)",,,,,1,18,42,9,103.15556733403355,,,,,,,,,,,,,,,,,,,,,,,,,103.14798370900098,104.53158716700273,,,,,,,,943340,001,2024-05-07_21h25.39.700,creatingimagesNEW,2024.1.4,None,2024-05-07 21h25.46.517593 -0400,
"(0, 0.25)",p,0.0,,,,,1,19,43,16,104.54262162500527,,,,,,,,,,,,,,,,,,,,,,,,,104.53209437499754,105.71656570903724,,,,,,,,943340,001,2024-05-07_21h25.39.700,creatingimagesNEW,2024.1.4,None,2024-05-07 21h25.46.517593 -0400,
"(-0.1875, 0.1875)",g,0.0,,,,,1,20,44,7,105.72400987503352,,,,,,,,,,,,,,,,,,,,,,,,,105.7167301250156,106.88988337502815,,,,,,,,943340,001,2024-05-07_21h25.39.700,creatingimagesNEW,2024.1.4,None,2024-05-07 21h25.46.517593 -0400,
"(0.1875, -0.1875)",p,0.0,,,,,1,21,45,19,106.89839012501761,,,,,,,,,,,,,,,,,,,,,,,,,106.89006062503904,108.56849833403248,,,,,,,,943340,001,2024-05-07_21h25.39.700,creatingimagesNEW,2024.1.4,None,2024-05-07 21h25.46.517593 -0400,
"(-0.25, 0)",g,"(0.1875, -0.1875)",,,,,1,22,46,14,108.5907124170335,,,,,,,,,,,,,,,,,,,,,,,,,108.56940029200632,109.58283520903205,,,,,,,,943340,001,2024-05-07_21h25.39.700,creatingimagesNEW,2024.1.4,None,2024-05-07 21h25.46.517593 -0400,
"(-0.1875, -0.1875)",g,"(-0.25, 0)",,,,,1,23,47,13,109.59368279203773,,,,,,,,,,,,,,,,,,,,,,,,,109.58336087502539,111.26846016704803,,,,,,,,943340,001,2024-05-07_21h25.39.700,creatingimagesNEW,2024.1.4,None,2024-05-07 21h25.46.517593 -0400,
"(0.1875, -0.1875)",g,0.0,,,,,2,0,48,3,111.29407437500777,,,,,,,,,,,,,,,,,,,,,,,,,111.26938587502809,112.7651202090201,,,,,,,,943340,001,2024-05-07_21h25.39.700,creatingimagesNEW,2024.1.4,None,2024-05-07 21h25.46.517593 -0400,
"(-0.25, 0)",p,0.0,,,,,2,1,49,22,112.78592329204548,,,,,,,,,,,,,,,,,,,,,,,,,112.76588029204868,114.16002000001026,,,,,,,,943340,001,2024-05-07_21h25.39.700,creatingimagesNEW,2024.1.4,None,2024-05-07 21h25.46.517593 -0400,
"(0.25, 0)",g,0.0,,,,,2,2,50,2,114.1693022090476,,,,,,,,,,,,,,,,,,,,,,,,,114.16037620900897,115.3426244170405,,,,,,,,943340,001,2024-05-07_21h25.39.700,creatingimagesNEW,2024.1.4,None,2024-05-07 21h25.46.517593 -0400,
"(0, 0.25)",g,0.0,,,,,2,3,51,0,115.35204437503126,,,,,,,,,,,,,,,,,,,,,,,,,115.34282958402764,116.52412566699786,,,,,,,,943340,001,2024-05-07_21h25.39.700,creatingimagesNEW,2024.1.4,None,2024-05-07 21h25.46.517593 -0400,
"(0.1875, -0.1875)",p,0.0,,,,,2,4,52,19,116.53292816702742,,,,,,,,,,,,,,,,,,,,,,,,,116.52465966704767,117.90002770902356,,,,,,,,943340,001,2024-05-07_21h25.39.700,creatingimagesNEW,2024.1.4,None,2024-05-07 21h25.46.517593 -0400,
"(0, -0.25)",g,0.0,,,,,2,5,53,4,117.91023012500955,,,,,,,,,,,,,,,,,,,,,,,,,117.90019379201112,119.1741492090514,,,,,,,,943340,001,2024-05-07_21h25.39.700,creatingimagesNEW,2024.1.4,None,2024-05-07 21h25.46.517593 -0400,
"(-0.1875, 0.1875)",g,"(0.1875, 0.1875)",,,,,2,6,54,15,119.1818720420124,,,,,,,,,,,,,,,,,,,,,,,,,119.17431454203324,121.44735729199601,,,,,,,,943340,001,2024-05-07_21h25.39.700,creatingimagesNEW,2024.1.4,None,2024-05-07 21h25.46.517593 -0400,
"(0.1875, 0.1875)",p,0.0,,,,,2,7,55,17,121.45822504203534,,,,,,,,,,,,,,,,,,,,,,,,,121.44752708403394,122.62220762501238,,,,,,,,943340,001,2024-05-07_21h25.39.700,creatingimagesNEW,2024.1.4,None,2024-05-07 21h25.46.517593 -0400,
"(0, -0.25)",g,"(-0.1875, 0.1875)",,,,,2,8,56,12,122.62980216700817,,,,,,,,,,,,,,,,,,,,,,,,,122.6223718340043,124.19508150004549,,,,,,,,943340,001,2024-05-07_21h25.39.700,creatingimagesNEW,2024.1.4,None,2024-05-07 21h25.46.517593 -0400,
"(0.25, 0)",p,0.0,,,,,2,9,57,18,124.20602162502473,,,,,,,,,,,,,,,,,,,,,,,,,124.19533937500091,125.4703285000287,,,,,,,,943340,001,2024-05-07_21h25.39.700,creatingimagesNEW,2024.1.4,None,2024-05-07 21h25.46.517593 -0400,
"(-0.25, 0)",g,"(0.1875, -0.1875)",,,,,2,10,58,14,125.47799337503966,,,,,,,,,,,,,,,,,,,,,,,,,125.47049812501064,127.24249591701664,,,,,,,,943340,001,2024-05-07_21h25.39.700,creatingimagesNEW,2024.1.4,None,2024-05-07 21h25.46.517593 -0400,
"(0.1875, -0.1875)",g,"(0.25, 0)",,,,,2,11,59,11,127.25255683402065,,,,,,,,,,,,,,,,,,,,,,,,,127.24267579201842,128.71716729202308,,,,,,,,943340,001,2024-05-07_21h25.39.700,creatingimagesNEW,2024.1.4,None,2024-05-07 21h25.46.517593 -0400,
"(0, -0.25)",p,0.0,,,,,2,12,60,20,128.72482220904203,,,,,,,,,,,,,,,,,,,,,,,,,128.71733270899858,129.8890875420184,,,,,,,,943340,001,2024-05-07_21h25.39.700,creatingimagesNEW,2024.1.4,None,2024-05-07 21h25.46.517593 -0400,
"(-0.1875, -0.1875)",p,0.0,,,,,2,13,61,21,129.89664991700556,,,,,,,,,,,,,,,,,,,,,,,,,129.8893352500163,131.16048454202246,,,,,,,,943340,001,2024-05-07_21h25.39.700,creatingimagesNEW,2024.1.4,None,2024-05-07 21h25.46.517593 -0400,
"(0, 0.25)",p,0.0,,,,,2,14,62,16,131.16785629204242,,,,,,,,,,,,,,,,,,,,,,,,,131.16064754204126,132.13115841703257,,,,,,,,943340,001,2024-05-07_21h25.39.700,creatingimagesNEW,2024.1.4,None,2024-05-07 21h25.46.517593 -0400,
"(-0.25, 0)",g,0.0,,,,,2,15,63,6,132.13856704201316,,,,,,,,,,,,,,,,,,,,,,,,,132.131322250003,133.2021943750442,,,,,,,,943340,001,2024-05-07_21h25.39.700,creatingimagesNEW,2024.1.4,None,2024-05-07 21h25.46.517593 -0400,
"(-0.1875, 0.1875)",p,0.0,,,,,2,16,64,23,133.21021345903864,,,,,,,,,,,,,,,,,,,,,,,,,133.20236087503145,134.3743520420394,,,,,,,,943340,001,2024-05-07_21h25.39.700,creatingimagesNEW,2024.1.4,None,2024-05-07 21h25.46.517593 -0400,
"(0, 0.25)",g,"(-0.1875, -0.1875)",,,,,2,17,65,8,134.38186654204037,,,,,,,,,,,,,,,,,,,,,,,,,134.37451329204487,135.4454295420437,,,,,,,,943340,001,2024-05-07_21h25.39.700,creatingimagesNEW,2024.1.4,None,2024-05-07 21h25.46.517593 -0400,
"(-0.1875, 0.1875)",g,0.0,,,,,2,18,66,7,135.4527578340494,,,,,,,,,,,,,,,,,,,,,,,,,135.4455893750419,136.61637725000037,,,,,,,,943340,001,2024-05-07_21h25.39.700,creatingimagesNEW,2024.1.4,None,2024-05-07 21h25.46.517593 -0400,
"(0.1875, 0.1875)",g,0.0,,,,,2,19,67,1,136.62380579201272,,,,,,,,,,,,,,,,,,,,,,,,,136.61654020904098,137.78746391704772,,,,,,,,943340,001,2024-05-07_21h25.39.700,creatingimagesNEW,2024.1.4,None,2024-05-07 21h25.46.517593 -0400,
"(-0.1875, -0.1875)",g,"(-0.25, 0)",,,,,2,20,68,13,137.79510504199425,,,,,,,,,,,,,,,,,,,,,,,,,137.7876423340058,139.959655209037,,,,,,,,943340,001,2024-05-07_21h25.39.700,creatingimagesNEW,2024.1.4,None,2024-05-07 21h25.46.517593 -0400,
"(0.25, 0)",g,"(0, 0.25)",,,,,2,21,69,10,139.97024791699369,,,,,,,,,,,,,,,,,,,,,,,,,139.95983329199953,141.63467329205014,,,,,,,,943340,001,2024-05-07_21h25.39.700,creatingimagesNEW,2024.1.4,None,2024-05-07 21h25.46.517593 -0400,
"(-0.1875, -0.1875)",g,0.0,,,,,2,22,70,5,141.64490216702688,,,,,,,,,,,,,,,,,,,,,,,,,141.63483558403095,143.00893937499495,,,,,,,,943340,001,2024-05-07_21h25.39.700,creatingimagesNEW,2024.1.4,None,2024-05-07 21h25.46.517593 -0400,
"(0.1875, 0.1875)",g,"(0, -0.25)",,,,,2,23,71,9,143.0192784999963,,,,,,,,,,,,,,,,,,,,,,,,,143.00910404202295,145.28645629202947,,,,,,,,943340,001,2024-05-07_21h25.39.700,creatingimagesNEW,2024.1.4,None,2024-05-07 21h25.46.517593 -0400,
,,,,,,,,,,,,,,,,,,,,,,,,,,,,,,,,,,,,,,145.286500834045,145.29755904199556,145.29755904199556,146.34350579202874,space,1.0423196670017205,None,943340,001,2024-05-07_21h25.39.700,creatingimagesNEW,2024.1.4,None,2024-05-07 21h25.46.517593 -0400,
