triangle_pos,triangle_color,pink_circle_pos,red_circle_pos,blue_circle_pos,test_trial_before_experiment.thisRepN,test_trial_before_experiment.thisTrialN,test_trial_before_experiment.thisN,test_trial_before_experiment.thisIndex,trials.thisRepN,trials.thisTrialN,trials.thisN,trials.thisIndex,thisRow.t,notes,Welcome_Page.started,textWelcomePage.started,key_resp.started,Welcome_Page.stopped,key_resp.keys,key_resp.rt,key_resp.duration,Test_Trial_routine_instructions.started,text.started,key_resp_3.started,Test_Trial_routine_instructions.stopped,key_resp_3.keys,key_resp_3.rt,key_resp_3.duration,test_trial.started,test_trial.stopped,Actual_Trial_Instructions.started,actual_trial_intructions.started,key_resp_4.started,Actual_Trial_Instructions.stopped,key_resp_4.keys,key_resp_4.rt,key_resp_4.duration,code_attempt.started,code_attempt.stopped,End_Routine.started,End_Text.started,key_resp_2.started,participant,session,date,expName,psychopyVersion,frameRate,expStart,
,,,,,,,,,,,,,,,0.024339750001672655,0.04339183302363381,1.9951720000244677,2.488766750029754,space,0.48750712495530024,None,,,,,,,,,,,,,,,,,,,,,,958920,001,2024-05-08_12h38.01.865,creatingimagesNEW,2024.1.4,None,2024-05-08 12h38.08.146555 -0400,
,,,,,,,,,,,,,,,,,,,,,,2.4888261249870993,2.513706792029552,3.485842042020522,3.637943833018653,space,0.14757641695905477,None,,,,,,,,,,,,,,,958920,001,2024-05-08_12h38.01.865,creatingimagesNEW,2024.1.4,None,2024-05-08 12h38.08.146555 -0400,
"(0, 0.25)",g,0.0,,,0,0,0,0,,,,,3.738530875009019,,,,,,,,,,,,,,,,3.7200330829946324,4.606356083007995,,,,,,,,,,,,,958920,001,2024-05-08_12h38.01.865,creatingimagesNEW,2024.1.4,None,2024-05-08 12h38.08.146555 -0400,
"(0.25, 0)",g,"(-0.1875, -0.1875)",,,0,1,1,6,,,,,4.61311645800015,,,,,,,,,,,,,,,,4.606542833033018,5.6751307080267,,,,,,,,,,,,,958920,001,2024-05-08_12h38.01.865,creatingimagesNEW,2024.1.4,None,2024-05-08 12h38.08.146555 -0400,
"(-0.1875, 0.1875)",g,"(-0.25, 0)",,,0,2,2,7,,,,,5.68141854199348,,,,,,,,,,,,,,,,5.675284249999095,6.6444903329829685,,,,,,,,,,,,,958920,001,2024-05-08_12h38.01.865,creatingimagesNEW,2024.1.4,None,2024-05-08 12h38.08.146555 -0400,
"(0.1875, 0.1875)",g,0.0,,,0,3,3,1,,,,,6.651812417025212,,,,,,,,,,,,,,,,6.6446726670255885,7.614295250037685,,,,,,,,,,,,,958920,001,2024-05-08_12h38.01.865,creatingimagesNEW,2024.1.4,None,2024-05-08 12h38.08.146555 -0400,
"(0.1875, -0.1875)",p,0.0,,,0,4,4,3,,,,,7.62085449998267,,,,,,,,,,,,,,,,7.614454917027615,8.683368167025037,,,,,,,,,,,,,958920,001,2024-05-08_12h38.01.865,creatingimagesNEW,2024.1.4,None,2024-05-08 12h38.08.146555 -0400,
"(-0.1875, -0.1875)",p,0.0,,,0,5,5,4,,,,,8.690180832985789,,,,,,,,,,,,,,,,8.683535207994282,9.65240800002357,,,,,,,,,,,,,958920,001,2024-05-08_12h38.01.865,creatingimagesNEW,2024.1.4,None,2024-05-08 12h38.08.146555 -0400,
"(-0.25, 0)",p,0.0,,,0,6,6,5,,,,,9.659392292029224,,,,,,,,,,,,,,,,9.652572542021517,10.621684583020397,,,,,,,,,,,,,958920,001,2024-05-08_12h38.01.865,creatingimagesNEW,2024.1.4,None,2024-05-08 12h38.08.146555 -0400,
"(-0.25, 0)",g,"(0.25, 0)",,,0,7,7,8,,,,,10.6284801249858,,,,,,,,,,,,,,,,10.621836500009522,11.69104879203951,,,,,,,,,,,,,958920,001,2024-05-08_12h38.01.865,creatingimagesNEW,2024.1.4,None,2024-05-08 12h38.08.146555 -0400,
"(0.25, 0)",g,0.0,,,0,8,8,2,,,,,11.69771579199005,,,,,,,,,,,,,,,,11.69120316702174,12.860012207995169,,,,,,,,,,,,,958920,001,2024-05-08_12h38.01.865,creatingimagesNEW,2024.1.4,None,2024-05-08 12h38.08.146555 -0400,
"(0.25, 0)",g,"(-0.1875, -0.1875)",,,1,0,9,6,,,,,12.866515042027459,,,,,,,,,,,,,,,,12.860170750005636,13.72912604198791,,,,,,,,,,,,,958920,001,2024-05-08_12h38.01.865,creatingimagesNEW,2024.1.4,None,2024-05-08 12h38.08.146555 -0400,
"(0.1875, 0.1875)",g,0.0,,,1,1,10,1,,,,,13.735594417026732,,,,,,,,,,,,,,,,13.729279457998928,14.798225250036921,,,,,,,,,,,,,958920,001,2024-05-08_12h38.01.865,creatingimagesNEW,2024.1.4,None,2024-05-08 12h38.08.146555 -0400,
"(-0.1875, -0.1875)",p,0.0,,,1,2,11,4,,,,,14.804622458002996,,,,,,,,,,,,,,,,14.79838233301416,15.767793749982957,,,,,,,,,,,,,958920,001,2024-05-08_12h38.01.865,creatingimagesNEW,2024.1.4,None,2024-05-08 12h38.08.146555 -0400,
"(-0.25, 0)",g,"(0.25, 0)",,,1,3,12,8,,,,,15.774136124993674,,,,,,,,,,,,,,,,15.767948249995243,16.736358750029467,,,,,,,,,,,,,958920,001,2024-05-08_12h38.01.865,creatingimagesNEW,2024.1.4,None,2024-05-08 12h38.08.146555 -0400,
"(0.25, 0)",g,0.0,,,1,4,13,2,,,,,16.742894583032466,,,,,,,,,,,,,,,,16.736516375036445,17.804930332989898,,,,,,,,,,,,,958920,001,2024-05-08_12h38.01.865,creatingimagesNEW,2024.1.4,None,2024-05-08 12h38.08.146555 -0400,
"(0.1875, -0.1875)",p,0.0,,,1,5,14,3,,,,,17.81171716703102,,,,,,,,,,,,,,,,17.80508399999235,18.87464654201176,,,,,,,,,,,,,958920,001,2024-05-08_12h38.01.865,creatingimagesNEW,2024.1.4,None,2024-05-08 12h38.08.146555 -0400,
"(0, 0.25)",g,0.0,,,1,6,15,0,,,,,18.88119041698519,,,,,,,,,,,,,,,,18.874805958010256,23.247214832983445,,,,,,,,,,,,,958920,001,2024-05-08_12h38.01.865,creatingimagesNEW,2024.1.4,None,2024-05-08 12h38.08.146555 -0400,
"(-0.1875, 0.1875)",g,"(-0.25, 0)",,,1,7,16,7,,,,,23.259093458007555,,,,,,,,,,,,,,,,23.247379292035475,24.222152166999876,,,,,,,,,,,,,958920,001,2024-05-08_12h38.01.865,creatingimagesNEW,2024.1.4,None,2024-05-08 12h38.08.146555 -0400,
"(-0.25, 0)",p,0.0,,,1,8,17,5,,,,,24.22939412499545,,,,,,,,,,,,,,,,24.22233345801942,25.193106708000414,,,,,,,,,,,,,958920,001,2024-05-08_12h38.01.865,creatingimagesNEW,2024.1.4,None,2024-05-08 12h38.08.146555 -0400,
"(0.1875, -0.1875)",p,0.0,,,2,0,18,3,,,,,25.20187720801914,,,,,,,,,,,,,,,,25.193380791984964,26.278574708034284,,,,,,,,,,,,,958920,001,2024-05-08_12h38.01.865,creatingimagesNEW,2024.1.4,None,2024-05-08 12h38.08.146555 -0400,
"(0.25, 0)",g,"(-0.1875, -0.1875)",,,2,1,19,6,,,,,26.287161083018873,,,,,,,,,,,,,,,,26.27891766699031,27.354233291989658,,,,,,,,,,,,,958920,001,2024-05-08_12h38.01.865,creatingimagesNEW,2024.1.4,None,2024-05-08 12h38.08.146555 -0400,
"(-0.1875, -0.1875)",p,0.0,,,2,2,20,4,,,,,27.361468332994264,,,,,,,,,,,,,,,,27.354414667002857,28.32591912499629,,,,,,,,,,,,,958920,001,2024-05-08_12h38.01.865,creatingimagesNEW,2024.1.4,None,2024-05-08 12h38.08.146555 -0400,
"(0.25, 0)",g,0.0,,,2,3,21,2,,,,,28.33236245799344,,,,,,,,,,,,,,,,28.326087291992735,29.401953875028994,,,,,,,,,,,,,958920,001,2024-05-08_12h38.01.865,creatingimagesNEW,2024.1.4,None,2024-05-08 12h38.08.146555 -0400,
"(0, 0.25)",g,0.0,,,2,4,22,0,,,,,29.408654750033747,,,,,,,,,,,,,,,,29.402115792036057,30.17138670803979,,,,,,,,,,,,,958920,001,2024-05-08_12h38.01.865,creatingimagesNEW,2024.1.4,None,2024-05-08 12h38.08.146555 -0400,
"(0.1875, 0.1875)",g,0.0,,,2,5,23,1,,,,,30.17790083301952,,,,,,,,,,,,,,,,30.171543708012905,31.040423792030197,,,,,,,,,,,,,958920,001,2024-05-08_12h38.01.865,creatingimagesNEW,2024.1.4,None,2024-05-08 12h38.08.146555 -0400,
"(-0.1875, 0.1875)",g,"(-0.25, 0)",,,2,6,24,7,,,,,31.04702500003623,,,,,,,,,,,,,,,,31.040583750000224,31.909696332993917,,,,,,,,,,,,,958920,001,2024-05-08_12h38.01.865,creatingimagesNEW,2024.1.4,None,2024-05-08 12h38.08.146555 -0400,
"(-0.25, 0)",p,0.0,,,2,7,25,5,,,,,31.91628954198677,,,,,,,,,,,,,,,,31.909863167034928,32.878434833022766,,,,,,,,,,,,,958920,001,2024-05-08_12h38.01.865,creatingimagesNEW,2024.1.4,None,2024-05-08 12h38.08.146555 -0400,
"(-0.25, 0)",g,"(0.25, 0)",,,2,8,26,8,,,,,32.8851709170267,,,,,,,,,,,,,,,,32.878595417016186,33.96099533303641,,,,,,,,,,,,,958920,001,2024-05-08_12h38.01.865,creatingimagesNEW,2024.1.4,None,2024-05-08 12h38.08.146555 -0400,
,,,,,,,,,,,,,,,,,,,,,,,,,,,,,,,33.96110770798987,33.9913886670256,34.95054975000676,34.95132550003473,space,31.396220833994448,None,,,,,,958920,001,2024-05-08_12h38.01.865,creatingimagesNEW,2024.1.4,None,2024-05-08 12h38.08.146555 -0400,
"(0.1875, 0.1875)",b,,0.0,"(0, -0.25)",,,,,0,0,0,49,35.01800004200777,,,,,,,,,,,,,,,,,,,,,,,,,35.0107422079891,36.481064292020164,,,,958920,001,2024-05-08_12h38.01.865,creatingimagesNEW,2024.1.4,None,2024-05-08 12h38.08.146555 -0400,
"(0.1875, 0.1875)",r,,"(0, -0.25)",0.0,,,,,0,1,1,25,36.488651958003175,,,,,,,,,,,,,,,,,,,,,,,,,36.481226542033255,37.652282375027426,,,,958920,001,2024-05-08_12h38.01.865,creatingimagesNEW,2024.1.4,None,2024-05-08 12h38.08.146555 -0400,
"(0.1875, 0.1875)",r,,0.0,0.0,,,,,0,2,2,17,37.658990791998804,,,,,,,,,,,,,,,,,,,,,,,,,37.6524419169873,38.7215239169891,,,,958920,001,2024-05-08_12h38.01.865,creatingimagesNEW,2024.1.4,None,2024-05-08 12h38.08.146555 -0400,
"(-0.25, 0)",g,,0.0,0.0,,,,,0,3,3,6,38.727838499995414,,,,,,,,,,,,,,,,,,,,,,,,,38.72167900000932,40.29102549998788,,,,958920,001,2024-05-08_12h38.01.865,creatingimagesNEW,2024.1.4,None,2024-05-08 12h38.08.146555 -0400,
"(0.1875, 0.1875)",g,,"(0, -0.25)",0.0,,,,,0,4,4,9,40.30024095799308,,,,,,,,,,,,,,,,,,,,,,,,,40.291184542002156,41.16287920798641,,,,958920,001,2024-05-08_12h38.01.865,creatingimagesNEW,2024.1.4,None,2024-05-08 12h38.08.146555 -0400,
None,None,,None,None,,,,,0,5,5,56,41.16934079199564,,,,,,,,,,,,,,,,,,,,,,,,,41.163027375005186,41.43116854201071,,,,958920,001,2024-05-08_12h38.01.865,creatingimagesNEW,2024.1.4,None,2024-05-08 12h38.08.146555 -0400,
"(0, 0.25)",g,,"(-0.1875, -0.1875)",0.0,,,,,0,6,6,8,41.437103000003844,,,,,,,,,,,,,,,,,,,,,,,,,41.4313663750072,42.39872212498449,,,,958920,001,2024-05-08_12h38.01.865,creatingimagesNEW,2024.1.4,None,2024-05-08 12h38.08.146555 -0400,
"(-0.25, 0)",g,,0.0,"(0.1875, -0.1875)",,,,,0,7,7,38,42.40489800000796,,,,,,,,,,,,,,,,,,,,,,,,,42.39887174998876,43.6680318749859,,,,958920,001,2024-05-08_12h38.01.865,creatingimagesNEW,2024.1.4,None,2024-05-08 12h38.08.146555 -0400,
"(-0.1875, -0.1875)",g,,"(0, 0.25)",0.0,,,,,0,8,8,13,43.67518833302893,,,,,,,,,,,,,,,,,,,,,,,,,43.66819562501041,44.73763583303662,,,,958920,001,2024-05-08_12h38.01.865,creatingimagesNEW,2024.1.4,None,2024-05-08 12h38.08.146555 -0400,
None,None,,None,None,,,,,0,9,9,63,44.744132333027665,,,,,,,,,,,,,,,,,,,,,,,,,44.737790249986574,45.00666275003459,,,,958920,001,2024-05-08_12h38.01.865,creatingimagesNEW,2024.1.4,None,2024-05-08 12h38.08.146555 -0400,
"(0.1875, 0.1875)",g,,0.0,0.0,,,,,0,10,10,1,45.01283883303404,,,,,,,,,,,,,,,,,,,,,,,,,45.0068287079921,46.07426437502727,,,,958920,001,2024-05-08_12h38.01.865,creatingimagesNEW,2024.1.4,None,2024-05-08 12h38.08.146555 -0400,
None,None,,None,None,,,,,0,11,11,62,46.080796458001714,,,,,,,,,,,,,,,,,,,,,,,,,46.074418833013624,46.3424397080089,,,,958920,001,2024-05-08_12h38.01.865,creatingimagesNEW,2024.1.4,None,2024-05-08 12h38.08.146555 -0400,
None,None,,None,None,,,,,0,12,12,57,46.35163279203698,,,,,,,,,,,,,,,,,,,,,,,,,46.34263762499904,46.615340333024506,,,,958920,001,2024-05-08_12h38.01.865,creatingimagesNEW,2024.1.4,None,2024-05-08 12h38.08.146555 -0400,
"(-0.1875, 0.1875)",b,,0.0,0.0,,,,,0,13,13,47,46.62140183302108,,,,,,,,,,,,,,,,,,,,,,,,,46.61554954200983,47.484049750026315,,,,958920,001,2024-05-08_12h38.01.865,creatingimagesNEW,2024.1.4,None,2024-05-08 12h38.08.146555 -0400,
"(0.25, 0)",g,,0.0,"(-0.1875, 0.1875)",,,,,0,14,14,34,47.491492500004824,,,,,,,,,,,,,,,,,,,,,,,,,47.484351375023834,48.6544690420269,,,,958920,001,2024-05-08_12h38.01.865,creatingimagesNEW,2024.1.4,None,2024-05-08 12h38.08.146555 -0400,
"(0.1875, -0.1875)",g,,0.0,"(-0.25, 0)",,,,,0,15,15,35,48.661587917013094,,,,,,,,,,,,,,,,,,,,,,,,,48.65465762501117,50.52602350001689,,,,958920,001,2024-05-08_12h38.01.865,creatingimagesNEW,2024.1.4,None,2024-05-08 12h38.08.146555 -0400,
"(-0.1875, -0.1875)",b,,0.0,0.0,,,,,0,16,16,45,50.535560166987125,,,,,,,,,,,,,,,,,,,,,,,,,50.52618633303791,51.49893820803845,,,,958920,001,2024-05-08_12h38.01.865,creatingimagesNEW,2024.1.4,None,2024-05-08 12h38.08.146555 -0400,
"(0, -0.25)",b,,0.0,0.0,,,,,0,17,17,44,51.505586832994595,,,,,,,,,,,,,,,,,,,,,,,,,51.49911929201335,52.668786958034616,,,,958920,001,2024-05-08_12h38.01.865,creatingimagesNEW,2024.1.4,None,2024-05-08 12h38.08.146555 -0400,
"(0, 0.25)",g,,0.0,0.0,,,,,0,18,18,0,52.67546699999366,,,,,,,,,,,,,,,,,,,,,,,,,52.66895345802186,53.63892604201101,,,,958920,001,2024-05-08_12h38.01.865,creatingimagesNEW,2024.1.4,None,2024-05-08 12h38.08.146555 -0400,
"(-0.1875, -0.1875)",r,,0.0,0.0,,,,,0,19,19,21,53.64531537500443,,,,,,,,,,,,,,,,,,,,,,,,,53.639081292029005,54.60814966703765,,,,958920,001,2024-05-08_12h38.01.865,creatingimagesNEW,2024.1.4,None,2024-05-08 12h38.08.146555 -0400,
"(0.25, 0)",g,,"(-0.1875, 0.1875)",0.0,,,,,0,20,20,10,54.614609082986135,,,,,,,,,,,,,,,,,,,,,,,,,54.60830579203321,62.184551707992796,,,,958920,001,2024-05-08_12h38.01.865,creatingimagesNEW,2024.1.4,None,2024-05-08 12h38.08.146555 -0400,
"(-0.1875, 0.1875)",g,,"(0.25, 0)",0.0,,,,,0,21,21,15,62.19473475002451,,,,,,,,,,,,,,,,,,,,,,,,,62.184718125034124,68.0628432080266,,,,958920,001,2024-05-08_12h38.01.865,creatingimagesNEW,2024.1.4,None,2024-05-08 12h38.08.146555 -0400,
"(0, 0.25)",r,,"(-0.1875, -0.1875)",0.0,,,,,0,22,22,24,68.0721555420314,,,,,,,,,,,,,,,,,,,,,,,,,68.06300950003788,69.23582104203524,,,,958920,001,2024-05-08_12h38.01.865,creatingimagesNEW,2024.1.4,None,2024-05-08 12h38.08.146555 -0400,
None,None,,None,None,,,,,0,23,23,61,69.24270170798991,,,,,,,,,,,,,,,,,,,,,,,,,69.23597554198932,69.50452404201496,,,,958920,001,2024-05-08_12h38.01.865,creatingimagesNEW,2024.1.4,None,2024-05-08 12h38.08.146555 -0400,
"(-0.25, 0)",g,,"(0.1875, -0.1875)",0.0,,,,,0,24,24,14,69.51101658301195,,,,,,,,,,,,,,,,,,,,,,,,,69.50471558299614,70.47348220803542,,,,958920,001,2024-05-08_12h38.01.865,creatingimagesNEW,2024.1.4,None,2024-05-08 12h38.08.146555 -0400,
"(0.25, 0)",g,,0.0,0.0,,,,,0,25,25,2,70.47992374998285,,,,,,,,,,,,,,,,,,,,,,,,,70.473639792006,71.54277666698908,,,,958920,001,2024-05-08_12h38.01.865,creatingimagesNEW,2024.1.4,None,2024-05-08 12h38.08.146555 -0400,
"(0, 0.25)",b,,0.0,0.0,,,,,0,26,26,40,71.54947804199765,,,,,,,,,,,,,,,,,,,,,,,,,71.54293433303246,72.51207854202949,,,,958920,001,2024-05-08_12h38.01.865,creatingimagesNEW,2024.1.4,None,2024-05-08 12h38.08.146555 -0400,
"(0.1875, -0.1875)",r,,"(-0.25, 0)",0.0,,,,,0,27,27,27,72.51890366699081,,,,,,,,,,,,,,,,,,,,,,,,,72.51223091699649,73.88248125003884,,,,958920,001,2024-05-08_12h38.01.865,creatingimagesNEW,2024.1.4,None,2024-05-08 12h38.08.146555 -0400,
"(-0.25, 0)",b,,0.0,0.0,,,,,0,28,28,46,73.89035716699436,,,,,,,,,,,,,,,,,,,,,,,,,73.88264354201965,74.95312395802466,,,,958920,001,2024-05-08_12h38.01.865,creatingimagesNEW,2024.1.4,None,2024-05-08 12h38.08.146555 -0400,
"(0, 0.25)",b,,0.0,"(-0.1875, -0.1875)",,,,,0,29,29,48,74.95976179203717,,,,,,,,,,,,,,,,,,,,,,,,,74.95328408299247,76.02248637500452,,,,958920,001,2024-05-08_12h38.01.865,creatingimagesNEW,2024.1.4,None,2024-05-08 12h38.08.146555 -0400,
"(0.1875, -0.1875)",g,,0.0,0.0,,,,,0,30,30,3,76.02868300001137,,,,,,,,,,,,,,,,,,,,,,,,,76.02263416699134,77.1916787920054,,,,958920,001,2024-05-08_12h38.01.865,creatingimagesNEW,2024.1.4,None,2024-05-08 12h38.08.146555 -0400,
"(-0.1875, 0.1875)",b,,0.0,"(0.25, 0)",,,,,0,31,31,55,77.19799916702323,,,,,,,,,,,,,,,,,,,,,,,,,77.19183058303315,78.26126954203937,,,,958920,001,2024-05-08_12h38.01.865,creatingimagesNEW,2024.1.4,None,2024-05-08 12h38.08.146555 -0400,
"(0, -0.25)",g,,0.0,"(0.1875, 0.1875)",,,,,0,32,32,36,78.26770466699963,,,,,,,,,,,,,,,,,,,,,,,,,78.26142262498615,79.53194912499748,,,,958920,001,2024-05-08_12h38.01.865,creatingimagesNEW,2024.1.4,None,2024-05-08 12h38.08.146555 -0400,
"(0.1875, -0.1875)",r,,0.0,0.0,,,,,0,33,33,19,79.5384542500251,,,,,,,,,,,,,,,,,,,,,,,,,79.53210191702237,80.90105362498434,,,,958920,001,2024-05-08_12h38.01.865,creatingimagesNEW,2024.1.4,None,2024-05-08 12h38.08.146555 -0400,
"(0, -0.25)",g,,"(0.1875, 0.1875)",0.0,,,,,0,34,34,12,80.90773550001904,,,,,,,,,,,,,,,,,,,,,,,,,80.90121495799394,82.07063279201975,,,,958920,001,2024-05-08_12h38.01.865,creatingimagesNEW,2024.1.4,None,2024-05-08 12h38.08.146555 -0400,
"(-0.1875, -0.1875)",b,,0.0,"(0, 0.25)",,,,,0,35,35,53,82.07707516703522,,,,,,,,,,,,,,,,,,,,,,,,,82.0707928329939,83.23956016701413,,,,958920,001,2024-05-08_12h38.01.865,creatingimagesNEW,2024.1.4,None,2024-05-08 12h38.08.146555 -0400,
"(-0.25, 0)",r,,0.0,0.0,,,,,0,36,36,22,83.24623316701036,,,,,,,,,,,,,,,,,,,,,,,,,83.2397134579951,84.30857525003375,,,,958920,001,2024-05-08_12h38.01.865,creatingimagesNEW,2024.1.4,None,2024-05-08 12h38.08.146555 -0400,
"(-0.1875, -0.1875)",g,,0.0,0.0,,,,,0,37,37,5,84.31488783302484,,,,,,,,,,,,,,,,,,,,,,,,,84.30873066699132,85.27706379198935,,,,958920,001,2024-05-08_12h38.01.865,creatingimagesNEW,2024.1.4,None,2024-05-08 12h38.08.146555 -0400,
"(0.25, 0)",b,,0.0,0.0,,,,,0,38,38,42,85.28376112499973,,,,,,,,,,,,,,,,,,,,,,,,,85.27721683302661,86.34663949999958,,,,958920,001,2024-05-08_12h38.01.865,creatingimagesNEW,2024.1.4,None,2024-05-08 12h38.08.146555 -0400,
None,None,,None,None,,,,,0,39,39,58,86.35284958302509,,,,,,,,,,,,,,,,,,,,,,,,,86.34678820800036,86.6143463330227,,,,958920,001,2024-05-08_12h38.01.865,creatingimagesNEW,2024.1.4,None,2024-05-08 12h38.08.146555 -0400,
"(-0.25, 0)",b,,0.0,"(0.1875, -0.1875)",,,,,0,40,40,54,86.62347191700246,,,,,,,,,,,,,,,,,,,,,,,,,86.61454500001855,87.9857324170298,,,,958920,001,2024-05-08_12h38.01.865,creatingimagesNEW,2024.1.4,None,2024-05-08 12h38.08.146555 -0400,
"(0, -0.25)",g,,0.0,0.0,,,,,0,41,41,4,87.99300816701725,,,,,,,,,,,,,,,,,,,,,,,,,87.98588037502486,89.0564589999849,,,,958920,001,2024-05-08_12h38.01.865,creatingimagesNEW,2024.1.4,None,2024-05-08 12h38.08.146555 -0400,
"(-0.1875, -0.1875)",r,,"(0, 0.25)",0.0,,,,,0,42,42,29,89.06325687502977,,,,,,,,,,,,,,,,,,,,,,,,,89.05662708298769,90.1271742079989,,,,958920,001,2024-05-08_12h38.01.865,creatingimagesNEW,2024.1.4,None,2024-05-08 12h38.08.146555 -0400,
"(-0.1875, 0.1875)",r,,"(0.25, 0)",0.0,,,,,0,43,43,31,90.1335737920017,,,,,,,,,,,,,,,,,,,,,,,,,90.12734279199503,91.19584412500262,,,,958920,001,2024-05-08_12h38.01.865,creatingimagesNEW,2024.1.4,None,2024-05-08 12h38.08.146555 -0400,
"(0.1875, 0.1875)",g,,0.0,"(0, -0.25)",,,,,0,44,44,33,91.20229904202279,,,,,,,,,,,,,,,,,,,,,,,,,91.19599291699706,92.46554429200478,,,,958920,001,2024-05-08_12h38.01.865,creatingimagesNEW,2024.1.4,None,2024-05-08 12h38.08.146555 -0400,
None,None,,None,None,,,,,0,45,45,59,92.47233612503624,,,,,,,,,,,,,,,,,,,,,,,,,92.46569120802451,92.73385875002714,,,,958920,001,2024-05-08_12h38.01.865,creatingimagesNEW,2024.1.4,None,2024-05-08 12h38.08.146555 -0400,
"(-0.1875, 0.1875)",g,,0.0,"(0.25, 0)",,,,,0,46,46,39,92.73992220801301,,,,,,,,,,,,,,,,,,,,,,,,,92.73406195803545,93.70194970798912,,,,958920,001,2024-05-08_12h38.01.865,creatingimagesNEW,2024.1.4,None,2024-05-08 12h38.08.146555 -0400,
"(0.25, 0)",r,,"(-0.1875, 0.1875)",0.0,,,,,0,47,47,26,93.70836658298504,,,,,,,,,,,,,,,,,,,,,,,,,93.70211645803647,94.87083825003356,,,,958920,001,2024-05-08_12h38.01.865,creatingimagesNEW,2024.1.4,None,2024-05-08 12h38.08.146555 -0400,
"(-0.25, 0)",r,,"(0.1875, -0.1875)",0.0,,,,,0,48,48,30,94.8773664170294,,,,,,,,,,,,,,,,,,,,,,,,,94.87099212501198,96.04018695803825,,,,958920,001,2024-05-08_12h38.01.865,creatingimagesNEW,2024.1.4,None,2024-05-08 12h38.08.146555 -0400,
None,None,,None,None,,,,,0,49,49,60,96.04687570803799,,,,,,,,,,,,,,,,,,,,,,,,,96.04034458298702,96.30860445799772,,,,958920,001,2024-05-08_12h38.01.865,creatingimagesNEW,2024.1.4,None,2024-05-08 12h38.08.146555 -0400,
"(0.1875, 0.1875)",b,,0.0,0.0,,,,,0,50,50,41,96.31476808298612,,,,,,,,,,,,,,,,,,,,,,,,,96.30881750001572,97.37681908300146,,,,958920,001,2024-05-08_12h38.01.865,creatingimagesNEW,2024.1.4,None,2024-05-08 12h38.08.146555 -0400,
"(0, -0.25)",r,,0.0,0.0,,,,,0,51,51,20,97.38330358301755,,,,,,,,,,,,,,,,,,,,,,,,,97.37697791703977,98.74652062501991,,,,958920,001,2024-05-08_12h38.01.865,creatingimagesNEW,2024.1.4,None,2024-05-08 12h38.08.146555 -0400,
"(0.25, 0)",b,,0.0,"(-0.1875, 0.1875)",,,,,0,52,52,50,98.75303120800527,,,,,,,,,,,,,,,,,,,,,,,,,98.746673458023,100.81637920800131,,,,958920,001,2024-05-08_12h38.01.865,creatingimagesNEW,2024.1.4,None,2024-05-08 12h38.08.146555 -0400,
"(0, -0.25)",r,,"(0.1875, 0.1875)",0.0,,,,,0,53,53,28,100.82553504203679,,,,,,,,,,,,,,,,,,,,,,,,,100.81654579198221,101.8885272500338,,,,958920,001,2024-05-08_12h38.01.865,creatingimagesNEW,2024.1.4,None,2024-05-08 12h38.08.146555 -0400,
"(0.1875, -0.1875)",b,,0.0,"(-0.25, 0)",,,,,0,54,54,51,101.89481333299773,,,,,,,,,,,,,,,,,,,,,,,,,101.88868087501032,102.95798829203704,,,,958920,001,2024-05-08_12h38.01.865,creatingimagesNEW,2024.1.4,None,2024-05-08 12h38.08.146555 -0400,
"(-0.1875, 0.1875)",r,,0.0,0.0,,,,,0,55,55,23,102.96415487502236,,,,,,,,,,,,,,,,,,,,,,,,,102.95813945803093,104.02650416700635,,,,958920,001,2024-05-08_12h38.01.865,creatingimagesNEW,2024.1.4,None,2024-05-08 12h38.08.146555 -0400,
"(-0.1875, -0.1875)",g,,0.0,"(0, 0.25)",,,,,0,56,56,37,104.03280749998521,,,,,,,,,,,,,,,,,,,,,,,,,104.02665125002386,105.29525800002739,,,,958920,001,2024-05-08_12h38.01.865,creatingimagesNEW,2024.1.4,None,2024-05-08 12h38.08.146555 -0400,
"(0, 0.25)",g,,0.0,"(-0.1875, -0.1875)",,,,,0,57,57,32,105.30189162498573,,,,,,,,,,,,,,,,,,,,,,,,,105.29540808300953,106.26439908298198,,,,958920,001,2024-05-08_12h38.01.865,creatingimagesNEW,2024.1.4,None,2024-05-08 12h38.08.146555 -0400,
"(-0.1875, 0.1875)",g,,0.0,0.0,,,,,0,58,58,7,106.27101095800754,,,,,,,,,,,,,,,,,,,,,,,,,106.26454941701377,107.23378154198872,,,,958920,001,2024-05-08_12h38.01.865,creatingimagesNEW,2024.1.4,None,2024-05-08 12h38.08.146555 -0400,
"(0.1875, -0.1875)",b,,0.0,0.0,,,,,0,59,59,43,107.2402460000012,,,,,,,,,,,,,,,,,,,,,,,,,107.23392716702074,108.40343025000766,,,,958920,001,2024-05-08_12h38.01.865,creatingimagesNEW,2024.1.4,None,2024-05-08 12h38.08.146555 -0400,
"(0, -0.25)",b,,0.0,"(0.1875, 0.1875)",,,,,0,60,60,52,108.40988087502774,,,,,,,,,,,,,,,,,,,,,,,,,108.40358225000091,109.77309012500336,,,,958920,001,2024-05-08_12h38.01.865,creatingimagesNEW,2024.1.4,None,2024-05-08 12h38.08.146555 -0400,
"(0.25, 0)",r,,0.0,0.0,,,,,0,61,61,18,109.77953670802526,,,,,,,,,,,,,,,,,,,,,,,,,109.77324654202675,110.74227583303582,,,,958920,001,2024-05-08_12h38.01.865,creatingimagesNEW,2024.1.4,None,2024-05-08 12h38.08.146555 -0400,
"(0.1875, -0.1875)",g,,"(-0.25, 0)",0.0,,,,,0,62,62,11,110.74880833300995,,,,,,,,,,,,,,,,,,,,,,,,,110.74247075000312,112.01132783299545,,,,958920,001,2024-05-08_12h38.01.865,creatingimagesNEW,2024.1.4,None,2024-05-08 12h38.08.146555 -0400,
"(0, 0.25)",r,,0.0,0.0,,,,,0,63,63,16,112.01788375002798,,,,,,,,,,,,,,,,,,,,,,,,,112.01149225002155,113.0806430830271,,,,958920,001,2024-05-08_12h38.01.865,creatingimagesNEW,2024.1.4,None,2024-05-08 12h38.08.146555 -0400,
"(0.1875, -0.1875)",g,,"(-0.25, 0)",0.0,,,,,1,0,64,11,113.08695866703056,,,,,,,,,,,,,,,,,,,,,,,,,113.08080454199808,114.04941637499724,,,,958920,001,2024-05-08_12h38.01.865,creatingimagesNEW,2024.1.4,None,2024-05-08 12h38.08.146555 -0400,
"(0.1875, 0.1875)",g,,"(0, -0.25)",0.0,,,,,1,1,65,9,114.05560608301312,,,,,,,,,,,,,,,,,,,,,,,,,114.0495654999977,114.91798383300193,,,,958920,001,2024-05-08_12h38.01.865,creatingimagesNEW,2024.1.4,None,2024-05-08 12h38.08.146555 -0400,
"(-0.1875, -0.1875)",g,,"(0, 0.25)",0.0,,,,,1,2,66,13,114.92434045800474,,,,,,,,,,,,,,,,,,,,,,,,,114.91814033302944,116.38685350003652,,,,958920,001,2024-05-08_12h38.01.865,creatingimagesNEW,2024.1.4,None,2024-05-08 12h38.08.146555 -0400,
"(-0.1875, -0.1875)",b,,0.0,"(0, 0.25)",,,,,1,3,67,53,116.39446595800109,,,,,,,,,,,,,,,,,,,,,,,,,116.38701591698918,117.45682745799422,,,,958920,001,2024-05-08_12h38.01.865,creatingimagesNEW,2024.1.4,None,2024-05-08 12h38.08.146555 -0400,
"(0, 0.25)",r,,"(-0.1875, -0.1875)",0.0,,,,,1,4,68,24,117.46351420803694,,,,,,,,,,,,,,,,,,,,,,,,,117.45699095801683,118.4257454170147,,,,958920,001,2024-05-08_12h38.01.865,creatingimagesNEW,2024.1.4,None,2024-05-08 12h38.08.146555 -0400,
"(0, 0.25)",g,,"(-0.1875, -0.1875)",0.0,,,,,1,5,69,8,118.4323371250066,,,,,,,,,,,,,,,,,,,,,,,,,118.42590416700114,119.69610858301166,,,,958920,001,2024-05-08_12h38.01.865,creatingimagesNEW,2024.1.4,None,2024-05-08 12h38.08.146555 -0400,
"(0, -0.25)",g,,"(0.1875, 0.1875)",0.0,,,,,1,6,70,12,119.70248266699491,,,,,,,,,,,,,,,,,,,,,,,,,119.69626404199516,120.66441841702908,,,,958920,001,2024-05-08_12h38.01.865,creatingimagesNEW,2024.1.4,None,2024-05-08 12h38.08.146555 -0400,
None,None,,None,None,,,,,1,7,71,60,120.67065675003687,,,,,,,,,,,,,,,,,,,,,,,,,120.66456850001123,120.93278345803265,,,,958920,001,2024-05-08_12h38.01.865,creatingimagesNEW,2024.1.4,None,2024-05-08 12h38.08.146555 -0400,
"(0, -0.25)",r,,0.0,0.0,,,,,1,8,72,20,120.9393174169818,,,,,,,,,,,,,,,,,,,,,,,,,120.93298824998783,122.40179612499196,,,,958920,001,2024-05-08_12h38.01.865,creatingimagesNEW,2024.1.4,None,2024-05-08 12h38.08.146555 -0400,
"(0.25, 0)",g,,0.0,"(-0.1875, 0.1875)",,,,,1,9,73,34,122.40831029199762,,,,,,,,,,,,,,,,,,,,,,,,,122.40194750000956,123.77112291700905,,,,958920,001,2024-05-08_12h38.01.865,creatingimagesNEW,2024.1.4,None,2024-05-08 12h38.08.146555 -0400,
"(-0.1875, 0.1875)",b,,0.0,"(0.25, 0)",,,,,1,10,74,55,123.7801024580258,,,,,,,,,,,,,,,,,,,,,,,,,123.77128229202935,124.74329745798605,,,,958920,001,2024-05-08_12h38.01.865,creatingimagesNEW,2024.1.4,None,2024-05-08 12h38.08.146555 -0400,
"(-0.25, 0)",r,,0.0,0.0,,,,,1,11,75,22,124.74974058300722,,,,,,,,,,,,,,,,,,,,,,,,,124.74346266698558,125.7128291670233,,,,958920,001,2024-05-08_12h38.01.865,creatingimagesNEW,2024.1.4,None,2024-05-08 12h38.08.146555 -0400,
"(0, 0.25)",g,,0.0,"(-0.1875, -0.1875)",,,,,1,12,76,32,125.71905150002567,,,,,,,,,,,,,,,,,,,,,,,,,125.7129841670394,126.9816191670252,,,,958920,001,2024-05-08_12h38.01.865,creatingimagesNEW,2024.1.4,None,2024-05-08 12h38.08.146555 -0400,
"(0.1875, -0.1875)",g,,0.0,0.0,,,,,1,13,77,3,126.98821512499126,,,,,,,,,,,,,,,,,,,,,,,,,126.98177708301228,128.15105754201068,,,,958920,001,2024-05-08_12h38.01.865,creatingimagesNEW,2024.1.4,None,2024-05-08 12h38.08.146555 -0400,
"(0.1875, -0.1875)",r,,"(-0.25, 0)",0.0,,,,,1,14,78,27,128.1573767500231,,,,,,,,,,,,,,,,,,,,,,,,,128.1512167500332,129.92085450002924,,,,958920,001,2024-05-08_12h38.01.865,creatingimagesNEW,2024.1.4,None,2024-05-08 12h38.08.146555 -0400,
"(-0.25, 0)",g,,"(0.1875, -0.1875)",0.0,,,,,1,15,79,14,129.93007070798194,,,,,,,,,,,,,,,,,,,,,,,,,129.9210161670344,131.19246462499723,,,,958920,001,2024-05-08_12h38.01.865,creatingimagesNEW,2024.1.4,None,2024-05-08 12h38.08.146555 -0400,
"(0.25, 0)",b,,0.0,"(-0.1875, 0.1875)",,,,,1,16,80,50,131.19913808302954,,,,,,,,,,,,,,,,,,,,,,,,,131.19262579199858,132.46153387503,,,,958920,001,2024-05-08_12h38.01.865,creatingimagesNEW,2024.1.4,None,2024-05-08 12h38.08.146555 -0400,
"(0.1875, 0.1875)",b,,0.0,0.0,,,,,1,17,81,41,132.46806233300595,,,,,,,,,,,,,,,,,,,,,,,,,132.46168850001413,133.53050104202703,,,,958920,001,2024-05-08_12h38.01.865,creatingimagesNEW,2024.1.4,None,2024-05-08 12h38.08.146555 -0400,
"(-0.1875, 0.1875)",g,,0.0,"(0.25, 0)",,,,,1,18,82,39,133.53707166702952,,,,,,,,,,,,,,,,,,,,,,,,,133.5306597080198,134.99992349999957,,,,958920,001,2024-05-08_12h38.01.865,creatingimagesNEW,2024.1.4,None,2024-05-08 12h38.08.146555 -0400,
"(0.1875, 0.1875)",g,,0.0,"(0, -0.25)",,,,,1,19,83,33,135.00839616701705,,,,,,,,,,,,,,,,,,,,,,,,,135.00007912499132,136.0684764169855,,,,958920,001,2024-05-08_12h38.01.865,creatingimagesNEW,2024.1.4,None,2024-05-08 12h38.08.146555 -0400,
"(0.1875, 0.1875)",r,,0.0,0.0,,,,,1,20,84,17,136.0750233749859,,,,,,,,,,,,,,,,,,,,,,,,,136.0686311669997,137.33780208299868,,,,958920,001,2024-05-08_12h38.01.865,creatingimagesNEW,2024.1.4,None,2024-05-08 12h38.08.146555 -0400,
"(0.25, 0)",g,,0.0,0.0,,,,,1,21,85,2,137.34423091699136,,,,,,,,,,,,,,,,,,,,,,,,,137.3379544580239,138.40594033303205,,,,958920,001,2024-05-08_12h38.01.865,creatingimagesNEW,2024.1.4,None,2024-05-08 12h38.08.146555 -0400,
"(0.1875, 0.1875)",g,,0.0,0.0,,,,,1,22,86,1,138.4126994170365,,,,,,,,,,,,,,,,,,,,,,,,,138.40611620800337,139.47882937500253,,,,958920,001,2024-05-08_12h38.01.865,creatingimagesNEW,2024.1.4,None,2024-05-08 12h38.08.146555 -0400,
None,None,,None,None,,,,,1,23,87,63,139.4855737920152,,,,,,,,,,,,,,,,,,,,,,,,,139.47897712502163,139.74707158299861,,,,958920,001,2024-05-08_12h38.01.865,creatingimagesNEW,2024.1.4,None,2024-05-08 12h38.08.146555 -0400,
"(0, -0.25)",g,,0.0,"(0.1875, 0.1875)",,,,,1,24,88,36,139.75572379201185,,,,,,,,,,,,,,,,,,,,,,,,,139.74729920801474,140.91752975003328,,,,958920,001,2024-05-08_12h38.01.865,creatingimagesNEW,2024.1.4,None,2024-05-08 12h38.08.146555 -0400,
"(0.1875, 0.1875)",r,,"(0, -0.25)",0.0,,,,,1,25,89,25,140.9237361670239,,,,,,,,,,,,,,,,,,,,,,,,,140.91768137499457,141.98626095801592,,,,958920,001,2024-05-08_12h38.01.865,creatingimagesNEW,2024.1.4,None,2024-05-08 12h38.08.146555 -0400,
"(-0.1875, 0.1875)",r,,"(0.25, 0)",0.0,,,,,1,26,90,31,141.9934068750008,,,,,,,,,,,,,,,,,,,,,,,,,141.98641549999593,143.356075083022,,,,958920,001,2024-05-08_12h38.01.865,creatingimagesNEW,2024.1.4,None,2024-05-08 12h38.08.146555 -0400,
None,None,,None,None,,,,,1,27,91,57,143.3628086670069,,,,,,,,,,,,,,,,,,,,,,,,,143.35622970800614,143.62446908303536,,,,958920,001,2024-05-08_12h38.01.865,creatingimagesNEW,2024.1.4,None,2024-05-08 12h38.08.146555 -0400,
None,None,,None,None,,,,,1,28,92,59,143.63177195802564,,,,,,,,,,,,,,,,,,,,,,,,,143.62467925000237,143.89559154200833,,,,958920,001,2024-05-08_12h38.01.865,creatingimagesNEW,2024.1.4,None,2024-05-08 12h38.08.146555 -0400,
"(-0.25, 0)",b,,0.0,"(0.1875, -0.1875)",,,,,1,29,93,54,143.91779204201885,,,,,,,,,,,,,,,,,,,,,,,,,143.89589345798595,146.28130220802268,,,,958920,001,2024-05-08_12h38.01.865,creatingimagesNEW,2024.1.4,None,2024-05-08 12h38.08.146555 -0400,
None,None,,None,None,,,,,1,30,94,56,146.2903244580375,,,,,,,,,,,,,,,,,,,,,,,,,146.28145225002663,146.55244545801543,,,,958920,001,2024-05-08_12h38.01.865,creatingimagesNEW,2024.1.4,None,2024-05-08 12h38.08.146555 -0400,
"(-0.25, 0)",g,,0.0,"(0.1875, -0.1875)",,,,,1,31,95,38,146.55837204202544,,,,,,,,,,,,,,,,,,,,,,,,,146.552657000022,149.7218455420225,,,,958920,001,2024-05-08_12h38.01.865,creatingimagesNEW,2024.1.4,None,2024-05-08 12h38.08.146555 -0400,
"(-0.25, 0)",r,,"(0.1875, -0.1875)",0.0,,,,,1,32,96,30,149.73108487500576,,,,,,,,,,,,,,,,,,,,,,,,,149.72200358303962,150.89392454200424,,,,958920,001,2024-05-08_12h38.01.865,creatingimagesNEW,2024.1.4,None,2024-05-08 12h38.08.146555 -0400,
"(-0.25, 0)",g,,0.0,0.0,,,,,1,33,97,6,150.9002571250312,,,,,,,,,,,,,,,,,,,,,,,,,150.89408462500433,151.96240870800102,,,,958920,001,2024-05-08_12h38.01.865,creatingimagesNEW,2024.1.4,None,2024-05-08 12h38.08.146555 -0400,
"(0.25, 0)",r,,0.0,0.0,,,,,1,34,98,18,151.96866420801962,,,,,,,,,,,,,,,,,,,,,,,,,151.96256037498824,153.2312494579819,,,,958920,001,2024-05-08_12h38.01.865,creatingimagesNEW,2024.1.4,None,2024-05-08 12h38.08.146555 -0400,
None,None,,None,None,,,,,1,35,99,62,153.23793850000948,,,,,,,,,,,,,,,,,,,,,,,,,153.23139750002883,153.5004302500165,,,,958920,001,2024-05-08_12h38.01.865,creatingimagesNEW,2024.1.4,None,2024-05-08 12h38.08.146555 -0400,
"(-0.1875, 0.1875)",b,,0.0,0.0,,,,,1,36,100,47,153.5074098330224,,,,,,,,,,,,,,,,,,,,,,,,,153.50063745799707,155.47101212502457,,,,958920,001,2024-05-08_12h38.01.865,creatingimagesNEW,2024.1.4,None,2024-05-08 12h38.08.146555 -0400,
"(0.1875, -0.1875)",b,,0.0,0.0,,,,,1,37,101,43,155.48078183300095,,,,,,,,,,,,,,,,,,,,,,,,,155.47127033298602,156.64332583302166,,,,958920,001,2024-05-08_12h38.01.865,creatingimagesNEW,2024.1.4,None,2024-05-08 12h38.08.146555 -0400,
"(0, 0.25)",g,,0.0,0.0,,,,,1,38,102,0,156.6498877920094,,,,,,,,,,,,,,,,,,,,,,,,,156.64348229201278,157.81237354199402,,,,958920,001,2024-05-08_12h38.01.865,creatingimagesNEW,2024.1.4,None,2024-05-08 12h38.08.146555 -0400,
"(0.25, 0)",g,,"(-0.1875, 0.1875)",0.0,,,,,1,39,103,10,157.81882208300522,,,,,,,,,,,,,,,,,,,,,,,,,157.81252712500282,159.1814019579906,,,,958920,001,2024-05-08_12h38.01.865,creatingimagesNEW,2024.1.4,None,2024-05-08 12h38.08.146555 -0400,
"(0, 0.25)",b,,0.0,0.0,,,,,1,40,104,40,159.18797162501141,,,,,,,,,,,,,,,,,,,,,,,,,159.18156287499005,160.25111533299787,,,,958920,001,2024-05-08_12h38.01.865,creatingimagesNEW,2024.1.4,None,2024-05-08 12h38.08.146555 -0400,
"(-0.1875, 0.1875)",r,,0.0,0.0,,,,,1,41,105,23,160.2577282920247,,,,,,,,,,,,,,,,,,,,,,,,,160.25128645799123,161.42010116699385,,,,958920,001,2024-05-08_12h38.01.865,creatingimagesNEW,2024.1.4,None,2024-05-08 12h38.08.146555 -0400,
"(-0.1875, -0.1875)",r,,0.0,0.0,,,,,1,42,106,21,161.42654529202264,,,,,,,,,,,,,,,,,,,,,,,,,161.4202541669947,162.78914095798973,,,,958920,001,2024-05-08_12h38.01.865,creatingimagesNEW,2024.1.4,None,2024-05-08 12h38.08.146555 -0400,
None,None,,None,None,,,,,1,43,107,61,162.79872516699834,,,,,,,,,,,,,,,,,,,,,,,,,162.78929820802296,163.0608919170336,,,,958920,001,2024-05-08_12h38.01.865,creatingimagesNEW,2024.1.4,None,2024-05-08 12h38.08.146555 -0400,
"(-0.1875, -0.1875)",g,,0.0,"(0, 0.25)",,,,,1,44,108,37,163.06746037502307,,,,,,,,,,,,,,,,,,,,,,,,,163.0610963330255,164.43013120803516,,,,958920,001,2024-05-08_12h38.01.865,creatingimagesNEW,2024.1.4,None,2024-05-08 12h38.08.146555 -0400,
"(-0.1875, -0.1875)",b,,0.0,0.0,,,,,1,45,109,45,164.43757700000424,,,,,,,,,,,,,,,,,,,,,,,,,164.43028341699392,165.50010220799595,,,,958920,001,2024-05-08_12h38.01.865,creatingimagesNEW,2024.1.4,None,2024-05-08 12h38.08.146555 -0400,
"(0, -0.25)",g,,0.0,0.0,,,,,1,46,110,4,165.50660662498558,,,,,,,,,,,,,,,,,,,,,,,,,165.5002544579911,166.66985016700346,,,,958920,001,2024-05-08_12h38.01.865,creatingimagesNEW,2024.1.4,None,2024-05-08 12h38.08.146555 -0400,
"(0, -0.25)",b,,0.0,0.0,,,,,1,47,111,44,166.67639704199973,,,,,,,,,,,,,,,,,,,,,,,,,166.67000129201915,167.93897779198596,,,,958920,001,2024-05-08_12h38.01.865,creatingimagesNEW,2024.1.4,None,2024-05-08 12h38.08.146555 -0400,
"(0.1875, -0.1875)",g,,0.0,"(-0.25, 0)",,,,,1,48,112,35,167.94577158300672,,,,,,,,,,,,,,,,,,,,,,,,,167.93915591703262,169.70894679200137,,,,958920,001,2024-05-08_12h38.01.865,creatingimagesNEW,2024.1.4,None,2024-05-08 12h38.08.146555 -0400,
"(0, -0.25)",r,,"(0.1875, 0.1875)",0.0,,,,,1,49,113,28,169.71849816699978,,,,,,,,,,,,,,,,,,,,,,,,,169.70910754200304,170.88115958299022,,,,958920,001,2024-05-08_12h38.01.865,creatingimagesNEW,2024.1.4,None,2024-05-08 12h38.08.146555 -0400,
"(-0.1875, 0.1875)",g,,0.0,0.0,,,,,1,50,114,7,170.8881095830002,,,,,,,,,,,,,,,,,,,,,,,,,170.88133037503576,172.15105637500528,,,,958920,001,2024-05-08_12h38.01.865,creatingimagesNEW,2024.1.4,None,2024-05-08 12h38.08.146555 -0400,
"(-0.1875, -0.1875)",r,,"(0, 0.25)",0.0,,,,,1,51,115,29,172.15780941699632,,,,,,,,,,,,,,,,,,,,,,,,,172.15123479202157,173.52069974999176,,,,958920,001,2024-05-08_12h38.01.865,creatingimagesNEW,2024.1.4,None,2024-05-08 12h38.08.146555 -0400,
"(0.1875, -0.1875)",b,,0.0,"(-0.25, 0)",,,,,1,52,116,51,173.52741766703548,,,,,,,,,,,,,,,,,,,,,,,,,173.52086629200494,174.78995566698723,,,,958920,001,2024-05-08_12h38.01.865,creatingimagesNEW,2024.1.4,None,2024-05-08 12h38.08.146555 -0400,
"(0.1875, -0.1875)",r,,0.0,0.0,,,,,1,53,117,19,174.79655425000237,,,,,,,,,,,,,,,,,,,,,,,,,174.79010974999983,176.15932104201056,,,,958920,001,2024-05-08_12h38.01.865,creatingimagesNEW,2024.1.4,None,2024-05-08 12h38.08.146555 -0400,
"(0, 0.25)",r,,0.0,0.0,,,,,1,54,118,16,176.16812733298866,,,,,,,,,,,,,,,,,,,,,,,,,176.15948095801286,177.53131495800335,,,,958920,001,2024-05-08_12h38.01.865,creatingimagesNEW,2024.1.4,None,2024-05-08 12h38.08.146555 -0400,
"(0.1875, 0.1875)",b,,0.0,"(0, -0.25)",,,,,1,55,119,49,177.53788650000934,,,,,,,,,,,,,,,,,,,,,,,,,177.53147945803357,178.70081991702318,,,,958920,001,2024-05-08_12h38.01.865,creatingimagesNEW,2024.1.4,None,2024-05-08 12h38.08.146555 -0400,
"(-0.1875, 0.1875)",g,,"(0.25, 0)",0.0,,,,,1,56,120,15,178.70755233301315,,,,,,,,,,,,,,,,,,,,,,,,,178.70099404203938,179.87084191699978,,,,958920,001,2024-05-08_12h38.01.865,creatingimagesNEW,2024.1.4,None,2024-05-08 12h38.08.146555 -0400,
"(0.25, 0)",b,,0.0,0.0,,,,,1,57,121,42,179.8774542080355,,,,,,,,,,,,,,,,,,,,,,,,,179.87099779199343,181.6401971669984,,,,958920,001,2024-05-08_12h38.01.865,creatingimagesNEW,2024.1.4,None,2024-05-08 12h38.08.146555 -0400,
"(0, -0.25)",b,,0.0,"(0.1875, 0.1875)",,,,,1,58,122,52,181.64932079199934,,,,,,,,,,,,,,,,,,,,,,,,,181.6403548750095,182.81253958301386,,,,958920,001,2024-05-08_12h38.01.865,creatingimagesNEW,2024.1.4,None,2024-05-08 12h38.08.146555 -0400,
"(0.25, 0)",r,,"(-0.1875, 0.1875)",0.0,,,,,1,59,123,26,182.81897383299656,,,,,,,,,,,,,,,,,,,,,,,,,182.81269945803797,183.78153595799813,,,,958920,001,2024-05-08_12h38.01.865,creatingimagesNEW,2024.1.4,None,2024-05-08 12h38.08.146555 -0400,
"(0, 0.25)",b,,0.0,"(-0.1875, -0.1875)",,,,,1,60,124,48,183.78795691701816,,,,,,,,,,,,,,,,,,,,,,,,,183.78169124998385,184.75063958298415,,,,958920,001,2024-05-08_12h38.01.865,creatingimagesNEW,2024.1.4,None,2024-05-08 12h38.08.146555 -0400,
"(-0.25, 0)",b,,0.0,0.0,,,,,1,61,125,46,184.75715320801828,,,,,,,,,,,,,,,,,,,,,,,,,184.75080404203618,185.8199700420373,,,,958920,001,2024-05-08_12h38.01.865,creatingimagesNEW,2024.1.4,None,2024-05-08 12h38.08.146555 -0400,
"(-0.1875, -0.1875)",g,,0.0,0.0,,,,,1,62,126,5,185.8262744580279,,,,,,,,,,,,,,,,,,,,,,,,,185.82012154202675,186.88937625003746,,,,958920,001,2024-05-08_12h38.01.865,creatingimagesNEW,2024.1.4,None,2024-05-08 12h38.08.146555 -0400,
None,None,,None,None,,,,,1,63,127,58,186.89579766703537,,,,,,,,,,,,,,,,,,,,,,,,,186.88953320798464,187.1570256249979,,,,958920,001,2024-05-08_12h38.01.865,creatingimagesNEW,2024.1.4,None,2024-05-08 12h38.08.146555 -0400,
"(0.1875, 0.1875)",b,,0.0,0.0,,,,,2,0,128,41,187.16310683300253,,,,,,,,,,,,,,,,,,,,,,,,,187.15721874998417,188.1256466670311,,,,958920,001,2024-05-08_12h38.01.865,creatingimagesNEW,2024.1.4,None,2024-05-08 12h38.08.146555 -0400,
"(0, -0.25)",b,,0.0,"(0.1875, 0.1875)",,,,,2,1,129,52,188.13205775001552,,,,,,,,,,,,,,,,,,,,,,,,,188.12581250001676,189.3942299580085,,,,958920,001,2024-05-08_12h38.01.865,creatingimagesNEW,2024.1.4,None,2024-05-08 12h38.08.146555 -0400,
"(0.1875, 0.1875)",g,,"(0, -0.25)",0.0,,,,,2,2,130,9,189.40069779200712,,,,,,,,,,,,,,,,,,,,,,,,,189.39438045799034,190.46329166699434,,,,958920,001,2024-05-08_12h38.01.865,creatingimagesNEW,2024.1.4,None,2024-05-08 12h38.08.146555 -0400,
None,None,,None,None,,,,,2,3,131,63,190.4699872499914,,,,,,,,,,,,,,,,,,,,,,,,,190.46344345802208,190.73179858300136,,,,958920,001,2024-05-08_12h38.01.865,creatingimagesNEW,2024.1.4,None,2024-05-08 12h38.08.146555 -0400,
"(0.25, 0)",r,,0.0,0.0,,,,,2,4,132,18,190.74010187503882,,,,,,,,,,,,,,,,,,,,,,,,,190.73202008299995,191.80292404198553,,,,958920,001,2024-05-08_12h38.01.865,creatingimagesNEW,2024.1.4,None,2024-05-08 12h38.08.146555 -0400,
"(-0.25, 0)",g,,"(0.1875, -0.1875)",0.0,,,,,2,5,133,14,191.80928049999056,,,,,,,,,,,,,,,,,,,,,,,,,191.80307283299044,193.17214179201983,,,,958920,001,2024-05-08_12h38.01.865,creatingimagesNEW,2024.1.4,None,2024-05-08 12h38.08.146555 -0400,
"(0.1875, 0.1875)",r,,0.0,0.0,,,,,2,6,134,17,193.17878258303972,,,,,,,,,,,,,,,,,,,,,,,,,193.17229625000618,194.24208450003061,,,,958920,001,2024-05-08_12h38.01.865,creatingimagesNEW,2024.1.4,None,2024-05-08 12h38.08.146555 -0400,
"(0, -0.25)",r,,"(0.1875, 0.1875)",0.0,,,,,2,7,135,28,194.2485126670217,,,,,,,,,,,,,,,,,,,,,,,,,194.2422588330228,197.3138729580096,,,,958920,001,2024-05-08_12h38.01.865,creatingimagesNEW,2024.1.4,None,2024-05-08 12h38.08.146555 -0400,
"(0, 0.25)",b,,0.0,"(-0.1875, -0.1875)",,,,,2,8,136,48,197.32437995803775,,,,,,,,,,,,,,,,,,,,,,,,,197.31403658300405,198.38771204202203,,,,958920,001,2024-05-08_12h38.01.865,creatingimagesNEW,2024.1.4,None,2024-05-08 12h38.08.146555 -0400,
"(-0.1875, 0.1875)",g,,0.0,"(0.25, 0)",,,,,2,9,137,39,198.39400604198454,,,,,,,,,,,,,,,,,,,,,,,,,198.38786987500498,199.7570410000044,,,,958920,001,2024-05-08_12h38.01.865,creatingimagesNEW,2024.1.4,None,2024-05-08 12h38.08.146555 -0400,
"(0.1875, -0.1875)",g,,0.0,0.0,,,,,2,10,138,3,199.76373808301287,,,,,,,,,,,,,,,,,,,,,,,,,199.75719566701446,201.0269244579831,,,,958920,001,2024-05-08_12h38.01.865,creatingimagesNEW,2024.1.4,None,2024-05-08 12h38.08.146555 -0400,
"(0.25, 0)",r,,"(-0.1875, 0.1875)",0.0,,,,,2,11,139,26,201.03367483301554,,,,,,,,,,,,,,,,,,,,,,,,,201.0270837499993,202.5968543330091,,,,958920,001,2024-05-08_12h38.01.865,creatingimagesNEW,2024.1.4,None,2024-05-08 12h38.08.146555 -0400,
"(-0.25, 0)",g,,0.0,"(0.1875, -0.1875)",,,,,2,12,140,38,202.60450508299982,,,,,,,,,,,,,,,,,,,,,,,,,202.59701037500054,204.66835649998393,,,,958920,001,2024-05-08_12h38.01.865,creatingimagesNEW,2024.1.4,None,2024-05-08 12h38.08.146555 -0400,
"(-0.1875, -0.1875)",b,,0.0,0.0,,,,,2,13,141,45,204.67649308301043,,,,,,,,,,,,,,,,,,,,,,,,,204.66852025000844,205.7391671250225,,,,958920,001,2024-05-08_12h38.01.865,creatingimagesNEW,2024.1.4,None,2024-05-08 12h38.08.146555 -0400,
None,None,,None,None,,,,,2,14,142,57,205.74557141703553,,,,,,,,,,,,,,,,,,,,,,,,,205.7393277080264,206.00754183303798,,,,958920,001,2024-05-08_12h38.01.865,creatingimagesNEW,2024.1.4,None,2024-05-08 12h38.08.146555 -0400,
"(-0.1875, 0.1875)",g,,"(0.25, 0)",0.0,,,,,2,15,143,15,206.01421087502968,,,,,,,,,,,,,,,,,,,,,,,,,206.00775837502442,208.17746033298317,,,,958920,001,2024-05-08_12h38.01.865,creatingimagesNEW,2024.1.4,None,2024-05-08 12h38.08.146555 -0400,
"(-0.1875, -0.1875)",g,,"(0, 0.25)",0.0,,,,,2,16,144,13,208.1872600420029,,,,,,,,,,,,,,,,,,,,,,,,,208.1776216669823,209.54999137501,,,,958920,001,2024-05-08_12h38.01.865,creatingimagesNEW,2024.1.4,None,2024-05-08 12h38.08.146555 -0400,
"(-0.25, 0)",r,,"(0.1875, -0.1875)",0.0,,,,,2,17,145,30,209.55662691703765,,,,,,,,,,,,,,,,,,,,,,,,,209.5501524170395,210.71955500001786,,,,958920,001,2024-05-08_12h38.01.865,creatingimagesNEW,2024.1.4,None,2024-05-08 12h38.08.146555 -0400,
"(0, 0.25)",g,,0.0,"(-0.1875, -0.1875)",,,,,2,18,146,32,210.72604408301413,,,,,,,,,,,,,,,,,,,,,,,,,210.71971354202833,211.83545787498588,,,,958920,001,2024-05-08_12h38.01.865,creatingimagesNEW,2024.1.4,None,2024-05-08 12h38.08.146555 -0400,
"(0.1875, -0.1875)",b,,0.0,0.0,,,,,2,19,147,43,211.84182149998378,,,,,,,,,,,,,,,,,,,,,,,,,211.83561495802132,213.1046552080079,,,,958920,001,2024-05-08_12h38.01.865,creatingimagesNEW,2024.1.4,None,2024-05-08 12h38.08.146555 -0400,
"(-0.25, 0)",r,,0.0,0.0,,,,,2,20,148,22,213.1112510000239,,,,,,,,,,,,,,,,,,,,,,,,,213.10480845801067,214.37434375000885,,,,958920,001,2024-05-08_12h38.01.865,creatingimagesNEW,2024.1.4,None,2024-05-08 12h38.08.146555 -0400,
"(-0.1875, 0.1875)",r,,0.0,0.0,,,,,2,21,149,23,214.38107300002594,,,,,,,,,,,,,,,,,,,,,,,,,214.37449891702272,215.44423299998743,,,,958920,001,2024-05-08_12h38.01.865,creatingimagesNEW,2024.1.4,None,2024-05-08 12h38.08.146555 -0400,
"(0.1875, -0.1875)",g,,"(-0.25, 0)",0.0,,,,,2,22,150,11,215.4506148750079,,,,,,,,,,,,,,,,,,,,,,,,,215.44439112499822,216.7144867919851,,,,958920,001,2024-05-08_12h38.01.865,creatingimagesNEW,2024.1.4,None,2024-05-08 12h38.08.146555 -0400,
"(0.25, 0)",g,,"(-0.1875, 0.1875)",0.0,,,,,2,23,151,10,216.7210874169832,,,,,,,,,,,,,,,,,,,,,,,,,216.7146432499867,217.88418770802673,,,,958920,001,2024-05-08_12h38.01.865,creatingimagesNEW,2024.1.4,None,2024-05-08 12h38.08.146555 -0400,
"(0.1875, -0.1875)",b,,0.0,"(-0.25, 0)",,,,,2,24,152,51,217.89074937498663,,,,,,,,,,,,,,,,,,,,,,,,,217.88434733299073,222.0566594999982,,,,958920,001,2024-05-08_12h38.01.865,creatingimagesNEW,2024.1.4,None,2024-05-08 12h38.08.146555 -0400,
"(-0.1875, 0.1875)",g,,0.0,0.0,,,,,2,25,153,7,222.06590570800472,,,,,,,,,,,,,,,,,,,,,,,,,222.05681633303175,223.12969162501395,,,,958920,001,2024-05-08_12h38.01.865,creatingimagesNEW,2024.1.4,None,2024-05-08 12h38.08.146555 -0400,
"(0, -0.25)",g,,0.0,"(0.1875, 0.1875)",,,,,2,26,154,36,223.13615541701438,,,,,,,,,,,,,,,,,,,,,,,,,223.12985233298969,224.39939600002253,,,,958920,001,2024-05-08_12h38.01.865,creatingimagesNEW,2024.1.4,None,2024-05-08 12h38.08.146555 -0400,
None,None,,None,None,,,,,2,27,155,58,224.40598462498747,,,,,,,,,,,,,,,,,,,,,,,,,224.3995480830199,224.66826991701964,,,,958920,001,2024-05-08_12h38.01.865,creatingimagesNEW,2024.1.4,None,2024-05-08 12h38.08.146555 -0400,
"(-0.25, 0)",g,,0.0,0.0,,,,,2,28,156,6,224.67548291699495,,,,,,,,,,,,,,,,,,,,,,,,,224.6684860420064,225.8384105419973,,,,958920,001,2024-05-08_12h38.01.865,creatingimagesNEW,2024.1.4,None,2024-05-08 12h38.08.146555 -0400,
"(0, 0.25)",g,,0.0,0.0,,,,,2,29,157,0,225.8451371670235,,,,,,,,,,,,,,,,,,,,,,,,,225.83856916701188,227.00813620799454,,,,958920,001,2024-05-08_12h38.01.865,creatingimagesNEW,2024.1.4,None,2024-05-08 12h38.08.146555 -0400,
"(0.25, 0)",b,,0.0,"(-0.1875, 0.1875)",,,,,2,30,158,50,227.0148732920061,,,,,,,,,,,,,,,,,,,,,,,,,227.00829987501493,228.27860750001855,,,,958920,001,2024-05-08_12h38.01.865,creatingimagesNEW,2024.1.4,None,2024-05-08 12h38.08.146555 -0400,
"(-0.1875, 0.1875)",b,,0.0,"(0.25, 0)",,,,,2,31,159,55,228.28534450003644,,,,,,,,,,,,,,,,,,,,,,,,,228.27877858298598,229.44962491700426,,,,958920,001,2024-05-08_12h38.01.865,creatingimagesNEW,2024.1.4,None,2024-05-08 12h38.08.146555 -0400,
None,None,,None,None,,,,,2,32,160,59,229.45628862502053,,,,,,,,,,,,,,,,,,,,,,,,,229.44979062501807,229.71912766702008,,,,958920,001,2024-05-08_12h38.01.865,creatingimagesNEW,2024.1.4,None,2024-05-08 12h38.08.146555 -0400,
"(-0.1875, -0.1875)",b,,0.0,"(0, 0.25)",,,,,2,33,161,53,229.72694650001358,,,,,,,,,,,,,,,,,,,,,,,,,229.71934408298694,230.98971966700628,,,,958920,001,2024-05-08_12h38.01.865,creatingimagesNEW,2024.1.4,None,2024-05-08 12h38.08.146555 -0400,
"(-0.1875, -0.1875)",r,,0.0,0.0,,,,,2,34,162,21,230.99645291699562,,,,,,,,,,,,,,,,,,,,,,,,,230.98987779201707,231.25846079201438,,,,958920,001,2024-05-08_12h38.01.865,creatingimagesNEW,2024.1.4,None,2024-05-08 12h38.08.146555 -0400,
None,None,,None,None,,,,,2,35,163,60,231.26481012499426,,,,,,,,,,,,,,,,,,,,,,,,,231.2586734170327,231.52649979200214,,,,958920,001,2024-05-08_12h38.01.865,creatingimagesNEW,2024.1.4,None,2024-05-08 12h38.08.146555 -0400,
"(0.1875, 0.1875)",g,,0.0,0.0,,,,,2,36,164,1,231.53303612500895,,,,,,,,,,,,,,,,,,,,,,,,,231.5267074580188,232.59537749999436,,,,958920,001,2024-05-08_12h38.01.865,creatingimagesNEW,2024.1.4,None,2024-05-08 12h38.08.146555 -0400,
"(0.25, 0)",b,,0.0,0.0,,,,,2,37,165,42,232.60181658301735,,,,,,,,,,,,,,,,,,,,,,,,,232.5955531669897,233.5652613749844,,,,958920,001,2024-05-08_12h38.01.865,creatingimagesNEW,2024.1.4,None,2024-05-08 12h38.08.146555 -0400,
"(0, -0.25)",g,,"(0.1875, 0.1875)",0.0,,,,,2,38,166,12,233.57160883303732,,,,,,,,,,,,,,,,,,,,,,,,,233.56541429203935,235.1355002920027,,,,958920,001,2024-05-08_12h38.01.865,creatingimagesNEW,2024.1.4,None,2024-05-08 12h38.08.146555 -0400,
"(-0.25, 0)",b,,0.0,"(0.1875, -0.1875)",,,,,2,39,167,54,235.14472924999427,,,,,,,,,,,,,,,,,,,,,,,,,235.13565508299507,236.5082420000108,,,,958920,001,2024-05-08_12h38.01.865,creatingimagesNEW,2024.1.4,None,2024-05-08 12h38.08.146555 -0400,
"(0, -0.25)",r,,0.0,0.0,,,,,2,40,168,20,236.51469999999972,,,,,,,,,,,,,,,,,,,,,,,,,236.5083970419946,237.57826787501108,,,,958920,001,2024-05-08_12h38.01.865,creatingimagesNEW,2024.1.4,None,2024-05-08 12h38.08.146555 -0400,
"(-0.1875, -0.1875)",r,,"(0, 0.25)",0.0,,,,,2,41,169,29,237.5849712920026,,,,,,,,,,,,,,,,,,,,,,,,,237.57849445799366,238.64803224999923,,,,958920,001,2024-05-08_12h38.01.865,creatingimagesNEW,2024.1.4,None,2024-05-08 12h38.08.146555 -0400,
"(0.1875, -0.1875)",r,,0.0,0.0,,,,,2,42,170,19,238.65447858301923,,,,,,,,,,,,,,,,,,,,,,,,,238.64818729198305,239.81747995800106,,,,958920,001,2024-05-08_12h38.01.865,creatingimagesNEW,2024.1.4,None,2024-05-08 12h38.08.146555 -0400,
"(0.25, 0)",g,,0.0,"(-0.1875, 0.1875)",,,,,2,43,171,34,239.8242168329889,,,,,,,,,,,,,,,,,,,,,,,,,239.8176353329909,241.58811341703404,,,,958920,001,2024-05-08_12h38.01.865,creatingimagesNEW,2024.1.4,None,2024-05-08 12h38.08.146555 -0400,
"(-0.1875, -0.1875)",g,,0.0,"(0, 0.25)",,,,,2,44,172,37,241.5969529580325,,,,,,,,,,,,,,,,,,,,,,,,,241.58827308303444,242.6610222919844,,,,958920,001,2024-05-08_12h38.01.865,creatingimagesNEW,2024.1.4,None,2024-05-08 12h38.08.146555 -0400,
"(0.1875, 0.1875)",g,,0.0,"(0, -0.25)",,,,,2,45,173,33,242.66745441703824,,,,,,,,,,,,,,,,,,,,,,,,,242.6611840419937,243.83043316699332,,,,958920,001,2024-05-08_12h38.01.865,creatingimagesNEW,2024.1.4,None,2024-05-08 12h38.08.146555 -0400,
"(0.25, 0)",g,,0.0,0.0,,,,,2,46,174,2,243.8370163750369,,,,,,,,,,,,,,,,,,,,,,,,,243.83057975000702,245.10040229203878,,,,958920,001,2024-05-08_12h38.01.865,creatingimagesNEW,2024.1.4,None,2024-05-08 12h38.08.146555 -0400,
"(0.1875, -0.1875)",g,,0.0,"(-0.25, 0)",,,,,2,47,175,35,245.1069446670008,,,,,,,,,,,,,,,,,,,,,,,,,245.1005586250103,246.17029283300508,,,,958920,001,2024-05-08_12h38.01.865,creatingimagesNEW,2024.1.4,None,2024-05-08 12h38.08.146555 -0400,
"(0, -0.25)",b,,0.0,0.0,,,,,2,48,176,44,246.17669187503634,,,,,,,,,,,,,,,,,,,,,,,,,246.17044716700912,247.3408827080275,,,,958920,001,2024-05-08_12h38.01.865,creatingimagesNEW,2024.1.4,None,2024-05-08 12h38.08.146555 -0400,
"(0, 0.25)",r,,0.0,0.0,,,,,2,49,177,16,247.34740587498527,,,,,,,,,,,,,,,,,,,,,,,,,247.3410319579998,248.41091087501263,,,,958920,001,2024-05-08_12h38.01.865,creatingimagesNEW,2024.1.4,None,2024-05-08 12h38.08.146555 -0400,
"(0, 0.25)",b,,0.0,0.0,,,,,2,50,178,40,248.41744187503355,,,,,,,,,,,,,,,,,,,,,,,,,248.41107545798877,249.68089341698214,,,,958920,001,2024-05-08_12h38.01.865,creatingimagesNEW,2024.1.4,None,2024-05-08 12h38.08.146555 -0400,
None,None,,None,None,,,,,2,51,179,56,249.68742554198252,,,,,,,,,,,,,,,,,,,,,,,,,249.6810454170336,249.95006312499754,,,,958920,001,2024-05-08_12h38.01.865,creatingimagesNEW,2024.1.4,None,2024-05-08 12h38.08.146555 -0400,
"(0, 0.25)",r,,"(-0.1875, -0.1875)",0.0,,,,,2,52,180,24,249.95939204201568,,,,,,,,,,,,,,,,,,,,,,,,,249.95028883300256,251.22190283302916,,,,958920,001,2024-05-08_12h38.01.865,creatingimagesNEW,2024.1.4,None,2024-05-08 12h38.08.146555 -0400,
"(-0.1875, 0.1875)",r,,"(0.25, 0)",0.0,,,,,2,53,181,31,251.22843004198512,,,,,,,,,,,,,,,,,,,,,,,,,251.22205645800568,252.7944347920129,,,,958920,001,2024-05-08_12h38.01.865,creatingimagesNEW,2024.1.4,None,2024-05-08 12h38.08.146555 -0400,
"(-0.1875, -0.1875)",g,,0.0,0.0,,,,,2,54,182,5,252.80374595802277,,,,,,,,,,,,,,,,,,,,,,,,,252.79459387500538,254.06787633302156,,,,958920,001,2024-05-08_12h38.01.865,creatingimagesNEW,2024.1.4,None,2024-05-08 12h38.08.146555 -0400,
"(0.1875, -0.1875)",r,,"(-0.25, 0)",0.0,,,,,2,55,183,27,254.0746673750109,,,,,,,,,,,,,,,,,,,,,,,,,254.06803229200887,255.43830600002548,,,,958920,001,2024-05-08_12h38.01.865,creatingimagesNEW,2024.1.4,None,2024-05-08 12h38.08.146555 -0400,
None,None,,None,None,,,,,2,56,184,61,255.4466629580129,,,,,,,,,,,,,,,,,,,,,,,,,255.4384579170146,255.7091822079965,,,,958920,001,2024-05-08_12h38.01.865,creatingimagesNEW,2024.1.4,None,2024-05-08 12h38.08.146555 -0400,
"(0.1875, 0.1875)",b,,0.0,"(0, -0.25)",,,,,2,57,185,49,255.71537879202515,,,,,,,,,,,,,,,,,,,,,,,,,255.70940237503964,256.8784382499871,,,,958920,001,2024-05-08_12h38.01.865,creatingimagesNEW,2024.1.4,None,2024-05-08 12h38.08.146555 -0400,
"(-0.1875, 0.1875)",b,,0.0,0.0,,,,,2,58,186,47,256.8848359580152,,,,,,,,,,,,,,,,,,,,,,,,,256.8786005830043,257.9486434580176,,,,958920,001,2024-05-08_12h38.01.865,creatingimagesNEW,2024.1.4,None,2024-05-08 12h38.08.146555 -0400,
"(0, 0.25)",g,,"(-0.1875, -0.1875)",0.0,,,,,2,59,187,8,257.95523104199674,,,,,,,,,,,,,,,,,,,,,,,,,257.9487941249972,259.21924183302326,,,,958920,001,2024-05-08_12h38.01.865,creatingimagesNEW,2024.1.4,None,2024-05-08 12h38.08.146555 -0400,
"(0, -0.25)",g,,0.0,0.0,,,,,2,60,188,4,259.2258899169974,,,,,,,,,,,,,,,,,,,,,,,,,259.219404375006,260.3890774170286,,,,958920,001,2024-05-08_12h38.01.865,creatingimagesNEW,2024.1.4,None,2024-05-08 12h38.08.146555 -0400,
"(-0.25, 0)",b,,0.0,0.0,,,,,2,61,189,46,260.39571762498235,,,,,,,,,,,,,,,,,,,,,,,,,260.3892296249978,261.6593750420143,,,,958920,001,2024-05-08_12h38.01.865,creatingimagesNEW,2024.1.4,None,2024-05-08 12h38.08.146555 -0400,
None,None,,None,None,,,,,2,62,190,62,261.66579341702163,,,,,,,,,,,,,,,,,,,,,,,,,261.6595256670262,261.9282949169865,,,,958920,001,2024-05-08_12h38.01.865,creatingimagesNEW,2024.1.4,None,2024-05-08 12h38.08.146555 -0400,
"(0.1875, 0.1875)",r,,"(0, -0.25)",0.0,,,,,2,63,191,25,261.9344462080044,,,,,,,,,,,,,,,,,,,,,,,,,261.92844845802756,262.79607845802093,,,,958920,001,2024-05-08_12h38.01.865,creatingimagesNEW,2024.1.4,None,2024-05-08 12h38.08.146555 -0400,
,,,,,,,,,,,,,,,,,,,,,,,,,,,,,,,,,,,,,,,,262.79613100003917,262.8020951669896,262.8020951669896,,,,,,,,
